start	accuracy_gabor	delta	orientation	pressed_gabor	expected_gabor	rt_gabor	trial	participant	response condition	date	expName	
0.025	1	0.025	0	n	n	0.38424515825863637	0	2	1	2021_May_20_1336	Motor	
0.025	1	0.0205	0	n	n	0.43149985331547214	1	2	1	2021_May_20_1336	Motor	
0.025	1	0.016	0	n	n	0.5213210978454299	2	2	1	2021_May_20_1336	Motor	
0.025	0	0.0115	90	n	x	0.4749515019429964	3	2	1	2021_May_20_1336	Motor	
0.025	1	0.016	90	x	x	0.5112086960125453	4	2	1	2021_May_20_1336	Motor	
0.0425	1	0.0425	90	x	x	0.4220674994667206	5	2	1	2021_May_20_1336	Motor	
0.025	0	0.016	0	x	n	0.4679839860400534	6	2	1	2021_May_20_1336	Motor	
0.025	1	0.0205	0	n	n	0.43282846202419023	7	2	1	2021_May_20_1336	Motor	
0.0425	1	0.038000000000000006	0	n	n	0.5095824943127809	8	2	1	2021_May_20_1336	Motor	
0.025	1	0.0205	90	x	x	0.4414786262968846	9	2	1	2021_May_20_1336	Motor	
0.0425	1	0.03350000000000001	90	x	x	0.41823450174160826	10	2	1	2021_May_20_1336	Motor	
0.025	1	0.0205	90	x	x	0.5960810650976782	11	2	1	2021_May_20_1336	Motor	
0.0425	1	0.02900000000000001	90	x	x	0.550907985014419	12	2	1	2021_May_20_1336	Motor	
0.025	1	0.016	0	n	n	0.54868621334208	13	2	1	2021_May_20_1336	Motor	
0.0425	1	0.024500000000000008	90	x	x	0.5363278484073817	14	2	1	2021_May_20_1336	Motor	
0.025	1	0.016	90	x	x	0.48531887377066596	15	2	1	2021_May_20_1336	Motor	
0.0425	1	0.020000000000000007	0	n	n	0.517316840154308	16	2	1	2021_May_20_1336	Motor	
0.025	0	0.016	0	x	n	0.4191088491479604	17	2	1	2021_May_20_1336	Motor	
0.0425	1	0.015500000000000007	0	n	n	0.5129078559930349	18	2	1	2021_May_20_1336	Motor	
0.0425	0	0.011000000000000006	90	n	x	0.44371575760669657	19	2	1	2021_May_20_1336	Motor	
0.025	0	0.0205	90	n	x	0.6124548234638496	20	2	1	2021_May_20_1336	Motor	
0.025	1	0.025	90	x	x	0.5193842474618577	21	2	1	2021_May_20_1336	Motor	
0.0425	1	0.015500000000000007	0	n	n	0.5451600243923167	22	2	1	2021_May_20_1336	Motor	
0.0425	0	0.015500000000000007	90	n	x	0.6310426736818044	23	2	1	2021_May_20_1336	Motor	
0.025	0	0.025	90	n	x	0.6078857150769181	24	2	1	2021_May_20_1336	Motor	
0.025	0	0.029500000000000002	90	n	x	0.5707096306468884	25	2	1	2021_May_20_1336	Motor	
0.0425	1	0.020000000000000007	90	x	x	0.6064538127993728	26	2	1	2021_May_20_1336	Motor	
0.025	1	0.034	0	n	n	0.5173429515398311	27	2	1	2021_May_20_1336	Motor	
0.0425	1	0.020000000000000007	90	x	x	0.49513637054951687	28	2	1	2021_May_20_1336	Motor	
0.0425	1	0.020000000000000007	0	n	n	0.5540352073639951	29	2	1	2021_May_20_1336	Motor	
0.025	1	0.034	90	x	x	0.5748455972352531	30	2	1	2021_May_20_1336	Motor	
0.025	1	0.034	0	n	n	0.48772265715524554	31	2	1	2021_May_20_1336	Motor	
0.0425	0	0.015500000000000007	90	n	x	0.7224302173235628	32	2	1	2021_May_20_1336	Motor	
0.0425	0	0.020000000000000007	90	n	x	0.6772602091677982	33	2	1	2021_May_20_1336	Motor	
0.025	1	0.029500000000000002	90	x	x	0.617253174454163	34	2	1	2021_May_20_1336	Motor	
0.025	1	0.029500000000000002	90	x	x	0.5057157053834089	35	2	1	2021_May_20_1336	Motor	
0.0425	1	0.024500000000000008	90	x	x	0.5445375750514359	36	2	1	2021_May_20_1336	Motor	
0.025	1	0.029500000000000002	0	n	n	0.5053693455411121	37	2	1	2021_May_20_1336	Motor	
0.0425	1	0.024500000000000008	0	n	n	0.448172356644136	38	2	1	2021_May_20_1336	Motor	
0.025	0	0.025	90	n	x	0.6010333964604797	39	2	1	2021_May_20_1336	Motor	
0.0425	1	0.024500000000000008	90	x	x	0.7198167748756532	40	2	1	2021_May_20_1336	Motor	
0.025	1	0.029500000000000002	0	n	n	0.501645017257033	41	2	1	2021_May_20_1336	Motor	
0.0425	1	0.020000000000000007	0	n	n	0.6763670462041773	42	2	1	2021_May_20_1336	Motor	
0.0425	1	0.020000000000000007	0	n	n	0.504208924872728	43	2	1	2021_May_20_1336	Motor	
0.025	1	0.029500000000000002	90	x	x	0.6112149166656309	44	2	1	2021_May_20_1336	Motor	
0.0425	1	0.020000000000000007	90	x	x	0.5740015851133649	45	2	1	2021_May_20_1336	Motor	
0.025	1	0.029500000000000002	0	n	n	0.45384467105031945	46	2	1	2021_May_20_1336	Motor	
0.0425	1	0.015500000000000007	90	x	x	0.6866426441938529	47	2	1	2021_May_20_1336	Motor	
0.025	1	0.025	0	n	n	0.5184146702977159	48	2	1	2021_May_20_1336	Motor	
0.025	0	0.025	90	n	x	0.7162686984393076	49	2	1	2021_May_20_1336	Motor	
0.0425	1	0.015500000000000007	0	n	n	0.603139586855832	50	2	1	2021_May_20_1336	Motor	
0.025	1	0.029500000000000002	90	x	x	0.5459806130638754	51	2	1	2021_May_20_1336	Motor	
0.0425	1	0.015500000000000007	0	n	n	0.5507559245979792	52	2	1	2021_May_20_1336	Motor	
0.0425	1	0.011000000000000006	0	n	n	0.6714684735743504	53	2	1	2021_May_20_1336	Motor	
0.025	1	0.029500000000000002	90	x	x	0.5353452155486593	54	2	1	2021_May_20_1336	Motor	
0.0425	0	0.011000000000000006	90	n	x	0.4971868822540273	55	2	1	2021_May_20_1336	Motor	
0.025	1	0.029500000000000002	0	n	n	0.5442964287303766	56	2	1	2021_May_20_1336	Motor	
0.0425	1	0.015500000000000007	90	x	x	0.45695499779503734	57	2	1	2021_May_20_1336	Motor	
0.025	1	0.025	0	n	n	0.43369743355833634	58	2	1	2021_May_20_1336	Motor	
0.0425	1	0.015500000000000007	0	n	n	0.44869304838175594	59	2	1	2021_May_20_1336	Motor	
0.025	1	0.025	0	n	n	0.47649591356821475	60	2	1	2021_May_20_1336	Motor	
0.025	1	0.025	0	n	n	0.40817125075045624	61	2	1	2021_May_20_1336	Motor	
0.0425	1	0.015500000000000007	0	n	n	0.47502484421602276	62	2	1	2021_May_20_1336	Motor	
0.025	1	0.0205	0	n	n	0.5240098025205953	63	2	1	2021_May_20_1336	Motor	
0.0425	0	0.011000000000000006	90	n	x	0.5298798722706124	64	2	1	2021_May_20_1336	Motor	
0.025	0	0.0205	90	n	x	0.5506211437714228	65	2	1	2021_May_20_1336	Motor	
0.0425	0	0.015500000000000007	90	n	x	0.5273505238401412	66	2	1	2021_May_20_1336	Motor	
0.025	1	0.025	0	n	n	0.5731664047852973	67	2	1	2021_May_20_1336	Motor	
0.0425	1	0.020000000000000007	90	x	x	0.626105701960114	68	2	1	2021_May_20_1336	Motor	
0.0425	1	0.020000000000000007	0	n	n	0.5318912168968382	69	2	1	2021_May_20_1336	Motor	
0.025	1	0.025	0	n	n	0.46169805408862885	70	2	1	2021_May_20_1336	Motor	
0.0425	1	0.020000000000000007	0	n	n	0.46955143712511926	71	2	1	2021_May_20_1336	Motor	
0.025	1	0.025	90	x	x	0.6784083421262039	72	2	1	2021_May_20_1336	Motor	
0.025	1	0.0205	0	n	n	0.47007443280745065	73	2	1	2021_May_20_1336	Motor	
0.0425	0	0.015500000000000007	90	n	x	0.6620798946933064	74	2	1	2021_May_20_1336	Motor	
0.025	1	0.0205	0	n	n	0.5567035605181445	75	2	1	2021_May_20_1336	Motor	
0.0425	1	0.020000000000000007	0	n	n	0.47244557696103584	76	2	1	2021_May_20_1336	Motor	
0.025	1	0.0205	0	n	n	0.5172842009214946	77	2	1	2021_May_20_1336	Motor	
0.0425	1	0.020000000000000007	90	x	x	0.6391406589591497	78	2	1	2021_May_20_1336	Motor	
0.0425	1	0.020000000000000007	0	n	n	0.5118837521131354	79	2	1	2021_May_20_1336	Motor	
0.025	1	0.016	0	n	n	0.5106161979674653	80	2	1	2021_May_20_1336	Motor	
0.0425	1	0.015500000000000007	90	x	x	0.7415556548803579	81	2	1	2021_May_20_1336	Motor	
0.025	1	0.016	90	x	x	0.7434736897084804	82	2	1	2021_May_20_1336	Motor	
0.0425	1	0.015500000000000007	90	x	x	0.8093219948477781	83	2	1	2021_May_20_1336	Motor	
0.025	0	0.016	90	n	x	1.1590317744830827	84	2	1	2021_May_20_1336	Motor	
0.0425	1	0.015500000000000007	0	n	n	0.5798762627546239	85	2	1	2021_May_20_1336	Motor	
0.025	1	0.0205	90	x	x	0.7608281609755068	86	2	1	2021_May_20_1336	Motor	
0.0425	1	0.011000000000000006	0	n	n	0.552553002273271	87	2	1	2021_May_20_1336	Motor	
0.025	1	0.0205	0	n	n	0.6263794875103486	88	2	1	2021_May_20_1336	Motor	
0.025	1	0.0205	0	n	n	0.5191123818640335	89	2	1	2021_May_20_1336	Motor	
0.0425	0	0.011000000000000006	90	n	x	0.5730224081762572	90	2	1	2021_May_20_1336	Motor	
0.0425	1	0.015500000000000007	0	n	n	0.6019050559334573	91	2	1	2021_May_20_1336	Motor	
0.025	1	0.016	0	n	n	0.6276163223792537	92	2	1	2021_May_20_1336	Motor	
0.025	1	0.016	0	n	n	0.6984488301332021	93	2	1	2021_May_20_1336	Motor	
0.0425	1	0.015500000000000007	90	x	x	0.6091690128523624	94	2	1	2021_May_20_1336	Motor	
