start,accuracy_gabor,delta,orientation,pressed_gabor,expected_gabor,rt_gabor,trial,participant,response condition,date,expName,
0.025,1,0.025,0,n,n,0.6963783230830813,0,3,1,2021_Jun_10_1016,Motor,
0.0165,0,0.0165,90,n,x,0.677213571266293,1,3,1,2021_Jun_10_1016,Motor,
0.0165,1,0.01815,0,n,n,0.5449714462131396,2,3,1,2021_Jun_10_1016,Motor,
0.025,1,0.023350000000000003,90,x,x,0.46169008005495016,3,3,1,2021_Jun_10_1016,Motor,
0.025,1,0.021700000000000004,0,n,n,0.4935204868427263,4,3,1,2021_Jun_10_1016,Motor,
0.0165,1,0.0165,0,n,n,1.2164320207909896,5,3,1,2021_Jun_10_1016,Motor,
0.025,0,0.020050000000000005,90,n,x,0.8101925806233794,6,3,1,2021_Jun_10_1016,Motor,
0.0165,0,0.0165,90,n,x,0.4879241596677275,7,3,1,2021_Jun_10_1016,Motor,
0.025,1,0.021700000000000004,0,n,n,0.5829710990826698,8,3,1,2021_Jun_10_1016,Motor,
0.0165,0,0.01815,90,n,x,0.6497242155771801,9,3,1,2021_Jun_10_1016,Motor,
0.025,1,0.021700000000000004,0,n,n,0.6174982950672074,10,3,1,2021_Jun_10_1016,Motor,
0.0165,1,0.019799999999999998,0,n,n,0.4473179561693996,11,3,1,2021_Jun_10_1016,Motor,
0.0165,0,0.019799999999999998,90,n,x,0.8391702966889625,12,3,1,2021_Jun_10_1016,Motor,
0.025,1,0.021700000000000004,90,x,x,0.6400110897438935,13,3,1,2021_Jun_10_1016,Motor,
0.025,0,0.020050000000000005,90,n,x,0.6729527748937016,14,3,1,2021_Jun_10_1016,Motor,
0.0165,1,0.021449999999999997,90,x,x,0.6316457825182624,15,3,1,2021_Jun_10_1016,Motor,
0.025,1,0.021700000000000004,0,n,n,0.968467572482723,16,3,1,2021_Jun_10_1016,Motor,
0.0165,1,0.021449999999999997,0,n,n,0.5123384921635079,17,3,1,2021_Jun_10_1016,Motor,
0.0165,0,0.021449999999999997,90,n,x,0.6860669347454404,18,3,1,2021_Jun_10_1016,Motor,
0.025,1,0.021700000000000004,0,n,n,0.41303843625382797,19,3,1,2021_Jun_10_1016,Motor,
0.0165,1,0.023099999999999996,0,n,n,0.4749109902127202,20,3,1,2021_Jun_10_1016,Motor,
0.025,1,0.021700000000000004,0,n,n,0.5456131000287314,21,3,1,2021_Jun_10_1016,Motor,
0.0165,1,0.023099999999999996,90,x,x,0.6145680375761913,22,3,1,2021_Jun_10_1016,Motor,
0.025,1,0.020050000000000005,0,n,n,0.6231418534923705,23,3,1,2021_Jun_10_1016,Motor,
0.025,0,0.020050000000000005,90,n,x,1.2891209150729992,24,3,1,2021_Jun_10_1016,Motor,
0.0165,1,0.023099999999999996,0,n,n,1.1999271947556736,25,3,1,2021_Jun_10_1016,Motor,
0.0165,1,0.021449999999999997,0,n,n,0.5467981052204323,26,3,1,2021_Jun_10_1016,Motor,
0.025,1,0.021700000000000004,90,x,x,1.125519927747746,27,3,1,2021_Jun_10_1016,Motor,
0.025,0,0.021700000000000004,90,n,x,0.5873106142059896,28,3,1,2021_Jun_10_1016,Motor,
0.0165,0,0.021449999999999997,90,n,x,0.5742233339271934,29,3,1,2021_Jun_10_1016,Motor,
0.0165,1,0.023099999999999996,0,n,n,0.5939932601388591,30,3,1,2021_Jun_10_1016,Motor,
0.025,1,0.023350000000000003,0,n,n,0.4288466973450795,31,3,1,2021_Jun_10_1016,Motor,
0.0165,1,0.023099999999999996,0,n,n,0.433632413386249,32,3,1,2021_Jun_10_1016,Motor,
0.025,0,0.023350000000000003,90,n,x,0.4504129470456064,33,3,1,2021_Jun_10_1016,Motor,
0.025,1,0.025,0,n,n,0.4393566105318314,34,3,1,2021_Jun_10_1016,Motor,
0.0165,0,0.023099999999999996,90,n,x,1.3831533425902762,35,3,1,2021_Jun_10_1016,Motor,
0.0165,0,0.024749999999999994,90,n,x,1.0978850383687586,36,3,1,2021_Jun_10_1016,Motor,
0.025,1,0.025,90,x,x,0.5766935667195412,37,3,1,2021_Jun_10_1016,Motor,
0.0165,1,0.026399999999999993,90,x,x,0.5956041145714153,38,3,1,2021_Jun_10_1016,Motor,
0.025,1,0.025,90,x,x,0.6493052782266204,39,3,1,2021_Jun_10_1016,Motor,
0.0165,1,0.026399999999999993,0,n,n,0.7136158094899656,40,3,1,2021_Jun_10_1016,Motor,
0.025,1,0.023350000000000003,90,x,x,0.609232058268617,41,3,1,2021_Jun_10_1016,Motor,
0.025,1,0.023350000000000003,90,x,x,0.46722727216888416,42,3,1,2021_Jun_10_1016,Motor,
0.0165,0,0.026399999999999993,90,n,x,0.5157583418836111,43,3,1,2021_Jun_10_1016,Motor,
0.025,1,0.023350000000000003,0,n,n,0.4774380541032315,44,3,1,2021_Jun_10_1016,Motor,
0.0165,0,0.02804999999999999,0,x,n,0.5213535170769319,45,3,1,2021_Jun_10_1016,Motor,
0.025,1,0.021700000000000004,90,x,x,0.9141750582134591,46,3,1,2021_Jun_10_1016,Motor,
0.025,0,0.021700000000000004,90,n,x,0.7760589783918022,47,3,1,2021_Jun_10_1016,Motor,
0.0165,1,0.02969999999999999,0,n,n,0.9147813845897872,48,3,1,2021_Jun_10_1016,Motor,
0.025,1,0.023350000000000003,0,n,n,0.4605822576384071,49,3,1,2021_Jun_10_1016,Motor,
0.0165,1,0.02969999999999999,0,n,n,0.6135254941234507,50,3,1,2021_Jun_10_1016,Motor,
0.0165,1,0.02969999999999999,90,x,x,0.5543001941473449,51,3,1,2021_Jun_10_1016,Motor,
0.025,1,0.023350000000000003,0,n,n,0.542127587350933,52,3,1,2021_Jun_10_1016,Motor,
0.0165,1,0.02804999999999999,90,x,x,0.6148525770599917,53,3,1,2021_Jun_10_1016,Motor,
0.025,0,0.023350000000000003,90,n,x,0.6807536110786714,54,3,1,2021_Jun_10_1016,Motor,
0.025,1,0.025,90,x,x,0.8955939771324211,55,3,1,2021_Jun_10_1016,Motor,
0.0165,1,0.02804999999999999,90,x,x,0.41447687742311246,56,3,1,2021_Jun_10_1016,Motor,
0.0165,1,0.02804999999999999,0,n,n,0.4722606642787923,57,3,1,2021_Jun_10_1016,Motor,
0.025,1,0.025,0,n,n,0.6671840344549764,58,3,1,2021_Jun_10_1016,Motor,
0.025,1,0.025,90,x,x,0.5219145321723317,59,3,1,2021_Jun_10_1016,Motor,
0.0165,1,0.026399999999999993,0,n,n,0.9238079293204464,60,3,1,2021_Jun_10_1016,Motor,
0.0165,0,0.026399999999999993,90,n,x,0.6364814177670723,61,3,1,2021_Jun_10_1016,Motor,
0.025,0,0.023350000000000003,90,n,x,0.9144346380933257,62,3,1,2021_Jun_10_1016,Motor,
0.0165,1,0.02804999999999999,0,n,n,0.7911733624964654,63,3,1,2021_Jun_10_1016,Motor,
0.025,0,0.025,90,n,x,0.5939683005351526,64,3,1,2021_Jun_10_1016,Motor,
0.0165,0,0.02804999999999999,90,n,x,0.5807132149197969,65,3,1,2021_Jun_10_1016,Motor,
0.025,1,0.02665,90,x,x,0.5756590871387743,66,3,1,2021_Jun_10_1016,Motor,
0.025,1,0.02665,90,x,x,1.2274580217863331,67,3,1,2021_Jun_10_1016,Motor,
0.0165,1,0.02969999999999999,90,x,x,0.7400941092262201,68,3,1,2021_Jun_10_1016,Motor,
0.0165,1,0.02969999999999999,90,x,x,0.7371139325277909,69,3,1,2021_Jun_10_1016,Motor,
0.0165,1,0.02969999999999999,0,n,n,0.5156623434072571,70,3,1,2021_Jun_10_1016,Motor,
0.025,1,0.02665,0,n,n,0.3814768252000249,71,3,1,2021_Jun_10_1016,Motor,
0.0165,0,0.02804999999999999,90,n,x,0.5872921824984587,72,3,1,2021_Jun_10_1016,Motor,
0.025,1,0.025,0,n,n,0.330199815068454,73,3,1,2021_Jun_10_1016,Motor,
0.025,1,0.025,0,n,n,0.29100824511692736,74,3,1,2021_Jun_10_1016,Motor,
0.0165,0,0.02969999999999999,90,n,x,0.3549017589994037,75,3,1,2021_Jun_10_1016,Motor,
0.025,0,0.025,90,n,x,0.8056480127547729,76,3,1,2021_Jun_10_1016,Motor,
0.0165,1,0.03134999999999999,0,n,n,0.5445237093197193,77,3,1,2021_Jun_10_1016,Motor,
0.0165,1,0.03134999999999999,0,n,n,0.6913456989609585,78,3,1,2021_Jun_10_1016,Motor,
0.025,1,0.02665,0,n,n,0.6642841124826191,79,3,1,2021_Jun_10_1016,Motor,
0.025,1,0.02665,90,x,x,0.7950931722812129,80,3,1,2021_Jun_10_1016,Motor,
0.0165,1,0.03134999999999999,90,x,x,0.8458848141160615,81,3,1,2021_Jun_10_1016,Motor,
0.0165,1,0.02969999999999999,0,n,n,0.45357936078835337,82,3,1,2021_Jun_10_1016,Motor,
0.025,0,0.02665,90,n,x,0.4254226236921568,83,3,1,2021_Jun_10_1016,Motor,
0.0165,1,0.02969999999999999,0,n,n,0.7243253995072791,84,3,1,2021_Jun_10_1016,Motor,
0.025,1,0.0283,0,n,n,0.6212053722283599,85,3,1,2021_Jun_10_1016,Motor,
0.0165,1,0.02969999999999999,0,n,n,0.8677597949165374,86,3,1,2021_Jun_10_1016,Motor,
0.0165,1,0.02804999999999999,0,n,n,0.8714591921996089,87,3,1,2021_Jun_10_1016,Motor,
0.025,1,0.0283,90,x,x,0.5342526403421743,88,3,1,2021_Jun_10_1016,Motor,
0.025,1,0.0283,0,n,n,0.5672277329615554,89,3,1,2021_Jun_10_1016,Motor,
0.0165,1,0.02804999999999999,90,x,x,0.8668977285992696,90,3,1,2021_Jun_10_1016,Motor,
0.0165,1,0.02804999999999999,90,x,x,0.5218504051904347,91,3,1,2021_Jun_10_1016,Motor,
0.025,1,0.02665,0,n,n,0.6715788447006616,92,3,1,2021_Jun_10_1016,Motor,
0.025,1,0.02665,0,n,n,0.9114271978273791,93,3,1,2021_Jun_10_1016,Motor,
0.0165,1,0.026399999999999993,90,x,x,0.509240813329825,94,3,1,2021_Jun_10_1016,Motor,
0.025,1,0.02665,0,n,n,0.584212551378414,95,3,1,2021_Jun_10_1016,Motor,
