subject_id,trial,effector_order,block,condition,stim1,gabor.contrast,pressed_gabor,expected_gabor,pressed_cue,expected_cue,rt_gabor,rt_cue,accuracy_gabor,accuracy_cue,congruency,SDT,pressed_conf,conf,rt_conf,trial_start_time_rel2bloc,bloc_start_time_rel2exp,exp_start_date,effector
16,1,hand2,1,cue,white,-1,-1,-1,3,3,-1,0.7801812290681482,-1,1,none,none,-1,-1,-1,0,28731,11:09:07.026807,hand
16,2,hand2,1,cue,white,-1,-1,-1,3,3,-1,0.3390123253893762,-1,1,none,none,-1,-1,-1,3300,28731,11:09:07.026807,hand
16,3,hand2,1,gabor,90,0.01393663831150216,3,3,-1,4,0.5858038766336904,-1,1,-1,incongruent,CR,4,2,1.6376486146709794,5984,28731,11:09:07.026807,hand
16,4,hand2,1,cue,black,-1,-1,-1,4,4,-1,0.5085035123793205,-1,1,none,none,-1,-1,-1,11449,28731,11:09:07.026807,hand
16,5,hand2,1,cue,white,-1,-1,-1,3,3,-1,0.2152669246579535,-1,1,none,none,-1,-1,-1,14400,28731,11:09:07.026807,hand
16,6,hand2,1,cue,black,-1,-1,-1,4,4,-1,0.2101844008457192,-1,1,none,none,-1,-1,-1,17150,28731,11:09:07.026807,hand
16,7,hand2,1,gabor,0,0.01393663831150216,4,4,-1,3,0.38085482858878095,-1,1,-1,incongruent,hit,4,3,2.8366511559324863,22533,28731,11:09:07.026807,hand
16,8,hand2,1,cue,black,-1,-1,-1,4,4,-1,0.28157396961432823,-1,1,none,none,-1,-1,-1,28982,28731,11:09:07.026807,hand
16,9,hand2,1,cue,white,-1,-1,-1,3,3,-1,0.23239874695627805,-1,1,none,none,-1,-1,-1,31699,28731,11:09:07.026807,hand
16,10,hand2,1,gabor,0,0.01393663831150216,4,4,-1,4,0.4482005730706078,-1,1,-1,congruent,hit,q,2,4.799980646782387,34365,28731,11:09:07.026807,hand
16,11,hand2,1,gabor,90,0.01393663831150216,3,3,-1,3,0.4746196362975752,-1,1,-1,congruent,CR,3,2,4.7075275572160535,43050,28731,11:09:07.026807,hand
16,12,hand2,1,cue,black,-1,-1,-1,4,4,-1,0.26424131927433336,-1,1,none,none,-1,-1,-1,51564,28731,11:09:07.026807,hand
16,13,hand2,1,gabor,0,0.01393663831150216,3,4,-1,4,0.558825336434893,-1,0,-1,incongruent,miss,4,1,2.0808530622252874,56998,28731,11:09:07.026807,hand
16,14,hand2,1,cue,black,-1,-1,-1,4,4,-1,0.2045116806657461,-1,1,none,none,-1,-1,-1,62965,28731,11:09:07.026807,hand
16,15,hand2,1,gabor,90,0.01393663831150216,3,3,-1,4,0.6633576758931667,-1,1,-1,incongruent,CR,q,2,1.9833404883920593,65598,28731,11:09:07.026807,hand
16,16,hand2,1,gabor,90,0.01393663831150216,3,3,-1,3,0.45078292216749105,-1,1,-1,congruent,CR,c,3,3.8905944126036047,74514,28731,11:09:07.026807,hand
16,17,hand2,1,cue,black,-1,-1,-1,4,4,-1,0.23743711163933767,-1,1,none,none,-1,-1,-1,82097,28731,11:09:07.026807,hand
16,18,hand2,1,cue,white,-1,-1,-1,3,3,-1,0.21621231402332342,-1,1,none,none,-1,-1,-1,84663,28731,11:09:07.026807,hand
16,19,hand2,1,cue,black,-1,-1,-1,4,4,-1,0.24918651203552145,-1,1,none,none,-1,-1,-1,87414,28731,11:09:07.026807,hand
16,20,hand2,1,gabor,0,0.01393663831150216,3,4,-1,3,0.7249661894657038,-1,0,-1,congruent,miss,3,2,2.827773250934115,90097,28731,11:09:07.026807,hand
16,21,hand2,1,cue,black,-1,-1,-1,4,4,-1,0.36564335243747337,-1,1,none,none,-1,-1,-1,96980,28731,11:09:07.026807,hand
16,22,hand2,1,gabor,90,0.01393663831150216,3,3,-1,4,0.5934134546341738,-1,1,-1,incongruent,CR,c,2,3.1963503055421825,99780,28731,11:09:07.026807,hand
16,23,hand2,1,cue,white,-1,-1,-1,3,3,-1,0.3710849091739874,-1,1,none,none,-1,-1,-1,106897,28731,11:09:07.026807,hand
16,24,hand2,1,cue,white,-1,-1,-1,3,3,-1,0.40067114197063347,-1,1,none,none,-1,-1,-1,112630,28731,11:09:07.026807,hand
16,25,hand2,1,cue,white,-1,-1,-1,3,3,-1,0.284519575550803,-1,1,none,none,-1,-1,-1,115363,28731,11:09:07.026807,hand
16,26,hand2,1,gabor,0,0.01393663831150216,3,4,-1,3,0.5733060749907963,-1,0,-1,congruent,miss,c,3,4.813263712945627,117979,28731,11:09:07.026807,hand
16,27,hand2,1,cue,white,-1,-1,-1,4,3,-1,0.41776226107049297,-1,0,none,none,-1,-1,-1,126613,28731,11:09:07.026807,hand
16,28,hand2,1,gabor,90,0.01393663831150216,3,3,-1,3,0.5146639029444486,-1,1,-1,congruent,CR,3,3,1.7666224563381547,129564,28731,11:09:07.026807,hand
16,29,hand2,1,cue,black,-1,-1,-1,4,4,-1,0.21327246797227417,-1,1,none,none,-1,-1,-1,137928,28731,11:09:07.026807,hand
16,30,hand2,1,cue,black,-1,-1,-1,4,4,-1,0.25817692681630433,-1,1,none,none,-1,-1,-1,140579,28731,11:09:07.026807,hand
16,31,hand2,1,gabor,0,0.01393663831150216,4,4,-1,4,0.7278407568028342,-1,1,-1,congruent,hit,q,1,2.007838437488317,143179,28731,11:09:07.026807,hand
16,32,hand2,1,cue,white,-1,-1,-1,4,3,-1,0.4015704522444139,-1,0,none,none,-1,-1,-1,149262,28731,11:09:07.026807,hand
16,33,hand2,1,cue,black,-1,-1,-1,4,4,-1,0.26444137933140155,-1,1,none,none,-1,-1,-1,152095,28731,11:09:07.026807,hand
16,34,hand2,1,cue,white,-1,-1,-1,3,3,-1,0.2182509298363584,-1,1,none,none,-1,-1,-1,154695,28731,11:09:07.026807,hand
16,35,hand2,1,cue,white,-1,-1,-1,3,3,-1,0.2771872400844586,-1,1,none,none,-1,-1,-1,157244,28731,11:09:07.026807,hand
16,36,hand2,1,cue,black,-1,-1,-1,4,4,-1,0.21098848099427414,-1,1,none,none,-1,-1,-1,160063,28731,11:09:07.026807,hand
16,37,hand2,2,cue,white,-1,-1,-1,3,3,-1,0.1869309712164977,-1,1,none,none,-1,-1,-1,180395,28731,11:09:07.026807,hand
16,38,hand2,2,cue,black,-1,-1,-1,4,4,-1,0.1896300540138327,-1,1,none,none,-1,-1,-1,182977,28731,11:09:07.026807,hand
16,39,hand2,2,gabor,0,0.01393663831150216,4,4,-1,3,0.5145502411851339,-1,1,-1,incongruent,hit,4,1,1.0873840054864559,185712,28731,11:09:07.026807,hand
16,40,hand2,2,gabor,90,0.01393663831150216,3,3,-1,4,0.617282040135251,-1,1,-1,incongruent,CR,4,3,2.2432016060101887,190543,28731,11:09:07.026807,hand
16,41,hand2,2,cue,white,-1,-1,-1,3,3,-1,0.24301959359763714,-1,1,none,none,-1,-1,-1,196644,28731,11:09:07.026807,hand
16,42,hand2,2,gabor,0,0.01393663831150216,3,4,-1,4,0.4976718538928253,-1,0,-1,incongruent,miss,4,2,2.873548220617522,199411,28731,11:09:07.026807,hand
16,43,hand2,2,cue,white,-1,-1,-1,3,3,-1,0.37722840407332114,-1,1,none,none,-1,-1,-1,206211,28731,11:09:07.026807,hand
16,44,hand2,2,gabor,0,0.01393663831150216,4,4,-1,4,0.4912449725798069,-1,1,-1,congruent,hit,3,1,1.3921142546441843,208926,28731,11:09:07.026807,hand
16,45,hand2,2,cue,white,-1,-1,-1,3,3,-1,0.4618526559606835,-1,1,none,none,-1,-1,-1,214244,28731,11:09:07.026807,hand
16,46,hand2,2,cue,black,-1,-1,-1,4,4,-1,0.22971195191894367,-1,1,none,none,-1,-1,-1,217245,28731,11:09:07.026807,hand
16,47,hand2,2,gabor,90,0.01393663831150216,3,3,-1,3,0.4005640080813464,-1,1,-1,congruent,CR,3,3,1.9154095394478645,219910,28731,11:09:07.026807,hand
16,48,hand2,2,cue,white,-1,-1,-1,3,3,-1,0.2902506625796377,-1,1,none,none,-1,-1,-1,225559,28731,11:09:07.026807,hand
16,49,hand2,2,cue,black,-1,-1,-1,4,4,-1,0.26702104048126785,-1,1,none,none,-1,-1,-1,228378,28731,11:09:07.026807,hand
16,50,hand2,2,cue,white,-1,-1,-1,3,3,-1,0.17899192771255912,-1,1,none,none,-1,-1,-1,231076,28731,11:09:07.026807,hand
16,51,hand2,2,cue,black,-1,-1,-1,4,4,-1,0.2027318757482135,-1,1,none,none,-1,-1,-1,233794,28731,11:09:07.026807,hand
16,52,hand2,2,gabor,0,0.01393663831150216,4,4,-1,3,0.4515132757715037,-1,1,-1,incongruent,hit,c,1,1.5715285740279796,236426,28731,11:09:07.026807,hand
16,53,hand2,2,cue,black,-1,-1,-1,4,4,-1,0.45130131194855494,-1,1,none,none,-1,-1,-1,241692,28731,11:09:07.026807,hand
16,54,hand2,2,cue,white,-1,-1,-1,3,3,-1,0.2391501018737472,-1,1,none,none,-1,-1,-1,244575,28731,11:09:07.026807,hand
16,55,hand2,2,cue,black,-1,-1,-1,4,4,-1,0.3207423495277908,-1,1,none,none,-1,-1,-1,251009,28731,11:09:07.026807,hand
16,56,hand2,2,cue,black,-1,-1,-1,4,4,-1,0.26459651227378345,-1,1,none,none,-1,-1,-1,253658,28731,11:09:07.026807,hand
16,57,hand2,2,cue,black,-1,-1,-1,4,4,-1,0.16243532607404632,-1,1,none,none,-1,-1,-1,256258,28731,11:09:07.026807,hand
16,58,hand2,2,cue,white,-1,-1,-1,3,3,-1,0.22134245289635146,-1,1,none,none,-1,-1,-1,258758,28731,11:09:07.026807,hand
16,59,hand2,2,cue,white,-1,-1,-1,4,3,-1,0.24813168482978654,-1,0,none,none,-1,-1,-1,261509,28731,11:09:07.026807,hand
16,60,hand2,2,cue,black,-1,-1,-1,4,4,-1,0.2680501401955553,-1,1,none,none,-1,-1,-1,264192,28731,11:09:07.026807,hand
16,61,hand2,2,cue,white,-1,-1,-1,3,3,-1,0.21700794633943588,-1,1,none,none,-1,-1,-1,266993,28731,11:09:07.026807,hand
16,62,hand2,2,gabor,90,0.01393663831150216,3,3,-1,4,0.5316939672484295,-1,1,-1,incongruent,CR,3,2,2.284657812826481,269541,28731,11:09:07.026807,hand
16,63,hand2,2,cue,black,-1,-1,-1,4,4,-1,0.23936744158891088,-1,1,none,none,-1,-1,-1,275591,28731,11:09:07.026807,hand
16,64,hand2,2,gabor,0,0.01393663831150216,3,4,-1,4,0.5211514550628635,-1,0,-1,incongruent,miss,c,1,3.637167088161732,278157,28731,11:09:07.026807,hand
16,65,hand2,2,gabor,90,0.01393663831150216,3,3,-1,3,0.4046846308556269,-1,1,-1,congruent,CR,c,2,6.0376109066146455,285658,28731,11:09:07.026807,hand
16,66,hand2,2,gabor,0,0.01393663831150216,3,4,-1,3,0.47338164470056654,-1,0,-1,congruent,miss,4,1,1.9171497931438353,295541,28731,11:09:07.026807,hand
16,67,hand2,2,cue,black,-1,-1,-1,4,4,-1,0.26478966046670394,-1,1,none,none,-1,-1,-1,301375,28731,11:09:07.026807,hand
16,68,hand2,2,cue,white,-1,-1,-1,3,3,-1,0.2608141868313396,-1,1,none,none,-1,-1,-1,303974,28731,11:09:07.026807,hand
16,69,hand2,2,cue,black,-1,-1,-1,3,4,-1,0.6276029886903416,-1,0,none,none,-1,-1,-1,306657,28731,11:09:07.026807,hand
16,70,hand2,2,cue,white,-1,-1,-1,3,3,-1,0.4204275525335106,-1,1,none,none,-1,-1,-1,309807,28731,11:09:07.026807,hand
16,71,hand2,2,gabor,90,0.01393663831150216,3,3,-1,3,0.5312727275504585,-1,1,-1,congruent,CR,4,3,1.4432401588510402,312556,28731,11:09:07.026807,hand
16,72,hand2,2,gabor,90,0.01393663831150216,3,3,-1,4,0.6420226724476379,-1,1,-1,incongruent,CR,q,3,3.2728392937915487,317774,28731,11:09:07.026807,hand
16,73,hand2,3,cue,white,-1,-1,-1,3,3,-1,0.2098307438172924,-1,1,none,none,-1,-1,-1,353172,28731,11:09:07.026807,hand
16,74,hand2,3,gabor,90,0.01393663831150216,3,3,-1,4,0.4217673021230439,-1,1,-1,incongruent,CR,q,4,5.561496387783336,355805,28731,11:09:07.026807,hand
16,75,hand2,3,cue,black,-1,-1,-1,4,4,-1,0.35701542651258933,-1,1,none,none,-1,-1,-1,365222,28731,11:09:07.026807,hand
16,76,hand2,3,gabor,0,0.01393663831150216,3,4,-1,3,0.5341050557199196,-1,0,-1,congruent,miss,q,1,1.1409835889317037,368004,28731,11:09:07.026807,hand
16,77,hand2,3,cue,black,-1,-1,-1,4,4,-1,0.2898317268372921,-1,1,none,none,-1,-1,-1,373005,28731,11:09:07.026807,hand
16,78,hand2,3,cue,white,-1,-1,-1,3,3,-1,0.1916456302824372,-1,1,none,none,-1,-1,-1,375621,28731,11:09:07.026807,hand
16,79,hand2,3,cue,black,-1,-1,-1,4,4,-1,0.18754497511326917,-1,1,none,none,-1,-1,-1,378339,28731,11:09:07.026807,hand
16,80,hand2,3,cue,black,-1,-1,-1,4,4,-1,0.21233283849505824,-1,1,none,none,-1,-1,-1,381055,28731,11:09:07.026807,hand
16,81,hand2,3,cue,white,-1,-1,-1,3,3,-1,0.17821395904502424,-1,1,none,none,-1,-1,-1,383704,28731,11:09:07.026807,hand
16,82,hand2,3,cue,black,-1,-1,-1,4,4,-1,0.20713588493708812,-1,1,none,none,-1,-1,-1,386322,28731,11:09:07.026807,hand
16,83,hand2,3,gabor,90,0.01393663831150216,3,3,-1,4,0.4720169356005499,-1,1,-1,incongruent,CR,4,3,2.236768196824414,388954,28731,11:09:07.026807,hand
16,84,hand2,3,gabor,0,0.01393663831150216,4,4,-1,4,0.5275234254586394,-1,1,-1,congruent,hit,q,1,2.926519208453101,395004,28731,11:09:07.026807,hand
16,85,hand2,3,gabor,90,0.01393663831150216,3,3,-1,3,0.5831424250973214,-1,1,-1,congruent,CR,3,3,4.027124457323225,401787,28731,11:09:07.026807,hand
16,86,hand2,3,cue,black,-1,-1,-1,4,4,-1,0.3227014789081295,-1,1,none,none,-1,-1,-1,409637,28731,11:09:07.026807,hand
16,87,hand2,3,cue,white,-1,-1,-1,3,3,-1,0.2325703915721533,-1,1,none,none,-1,-1,-1,412287,28731,11:09:07.026807,hand
16,88,hand2,3,cue,white,-1,-1,-1,3,3,-1,0.34840170830466377,-1,1,none,none,-1,-1,-1,414853,28731,11:09:07.026807,hand
16,89,hand2,3,cue,black,-1,-1,-1,4,4,-1,0.24926676645372936,-1,1,none,none,-1,-1,-1,417737,28731,11:09:07.026807,hand
16,90,hand2,3,cue,white,-1,-1,-1,3,3,-1,0.17816749596204318,-1,1,none,none,-1,-1,-1,420521,28731,11:09:07.026807,hand
16,91,hand2,3,cue,white,-1,-1,-1,3,3,-1,0.275770692007427,-1,1,none,none,-1,-1,-1,425970,28731,11:09:07.026807,hand
16,92,hand2,3,gabor,0,0.01393663831150216,4,4,-1,4,0.5266901618833799,-1,1,-1,congruent,hit,3,1,1.112518614032524,428569,28731,11:09:07.026807,hand
16,93,hand2,3,cue,black,-1,-1,-1,4,4,-1,0.21526961260497046,-1,1,none,none,-1,-1,-1,433536,28731,11:09:07.026807,hand
16,94,hand2,3,gabor,90,0.01393663831150216,3,3,-1,3,0.6541986884349171,-1,1,-1,congruent,CR,q,3,1.6831655414425768,436185,28731,11:09:07.026807,hand
16,95,hand2,3,gabor,90,0.01393663831150216,3,3,-1,4,0.4718226354325452,-1,1,-1,incongruent,CR,4,3,1.4547775954233657,441869,28731,11:09:07.026807,hand
16,96,hand2,3,cue,black,-1,-1,-1,4,4,-1,0.31942602347407956,-1,1,none,none,-1,-1,-1,447036,28731,11:09:07.026807,hand
16,97,hand2,3,gabor,0,0.01393663831150216,3,4,-1,3,0.44237540789617924,-1,0,-1,congruent,miss,3,1,1.9163449450079497,449886,28731,11:09:07.026807,hand
16,98,hand2,3,cue,black,-1,-1,-1,4,4,-1,0.31602039460631204,-1,1,none,none,-1,-1,-1,455602,28731,11:09:07.026807,hand
16,99,hand2,3,gabor,90,0.01393663831150216,3,3,-1,3,0.5859186903708178,-1,1,-1,congruent,CR,3,2,1.5838105719267332,458453,28731,11:09:07.026807,hand
16,100,hand2,3,cue,white,-1,-1,-1,3,3,-1,0.4905894974999683,-1,1,none,none,-1,-1,-1,464070,28731,11:09:07.026807,hand
16,101,hand2,3,cue,black,-1,-1,-1,4,4,-1,0.2455297521173634,-1,1,none,none,-1,-1,-1,466885,28731,11:09:07.026807,hand
16,102,hand2,3,cue,white,-1,-1,-1,4,3,-1,0.27526804591616383,-1,0,none,none,-1,-1,-1,469468,28731,11:09:07.026807,hand
16,103,hand2,3,cue,white,-1,-1,-1,3,3,-1,0.20023630894138478,-1,1,none,none,-1,-1,-1,472168,28731,11:09:07.026807,hand
16,104,hand2,3,cue,white,-1,-1,-1,3,3,-1,0.5297955086716684,-1,1,none,none,-1,-1,-1,477535,28731,11:09:07.026807,hand
16,105,hand2,3,gabor,0,0.01393663831150216,3,4,-1,3,0.5245497880750918,-1,0,-1,congruent,miss,c,1,6.473497226423206,480603,28731,11:09:07.026807,hand
16,106,hand2,3,gabor,0,0.01393663831150216,3,4,-1,4,0.7510788267336466,-1,0,-1,incongruent,miss,3,1,1.6390555629368464,490934,28731,11:09:07.026807,hand
16,107,hand2,3,cue,white,-1,-1,-1,3,3,-1,0.22177329240548715,-1,1,none,none,-1,-1,-1,496567,28731,11:09:07.026807,hand
16,108,hand2,3,cue,black,-1,-1,-1,4,4,-1,0.4267062127655663,-1,1,none,none,-1,-1,-1,499217,28731,11:09:07.026807,hand
16,109,hand2,4,cue,black,-1,-1,-1,4,4,-1,0.3552809327029536,-1,1,none,none,-1,-1,-1,522784,28731,11:09:07.026807,hand
16,110,hand2,4,cue,white,-1,-1,-1,3,3,-1,0.18019689595894306,-1,1,none,none,-1,-1,-1,525751,28731,11:09:07.026807,hand
16,111,hand2,4,cue,white,-1,-1,-1,3,3,-1,0.23908405517613573,-1,1,none,none,-1,-1,-1,528468,28731,11:09:07.026807,hand
16,112,hand2,4,cue,white,-1,-1,-1,3,3,-1,0.1557972489245003,-1,1,none,none,-1,-1,-1,531033,28731,11:09:07.026807,hand
16,113,hand2,4,gabor,90,0.01393663831150216,3,3,-1,4,0.4585775845189346,-1,1,-1,incongruent,CR,c,1,0.9845270250043541,533717,28731,11:09:07.026807,hand
16,114,hand2,4,gabor,0,0.01393663831150216,3,4,-1,4,0.4902846075110574,-1,0,-1,incongruent,miss,c,1,3.0683049575727637,538617,28731,11:09:07.026807,hand
16,115,hand2,4,cue,white,-1,-1,-1,3,3,-1,0.20179378224020184,-1,1,none,none,-1,-1,-1,545617,28731,11:09:07.026807,hand
16,116,hand2,4,cue,black,-1,-1,-1,4,4,-1,0.18480442113650497,-1,1,none,none,-1,-1,-1,548149,28731,11:09:07.026807,hand
16,117,hand2,4,gabor,90,0.01393663831150216,3,3,-1,4,0.43751137577601185,-1,1,-1,incongruent,CR,4,3,1.1104892140374432,550867,28731,11:09:07.026807,hand
16,118,hand2,4,cue,black,-1,-1,-1,4,4,-1,0.3153322801699687,-1,1,none,none,-1,-1,-1,555748,28731,11:09:07.026807,hand
16,119,hand2,4,cue,white,-1,-1,-1,3,3,-1,0.20628226976259612,-1,1,none,none,-1,-1,-1,558398,28731,11:09:07.026807,hand
16,120,hand2,4,cue,white,-1,-1,-1,3,3,-1,0.19419610800650844,-1,1,none,none,-1,-1,-1,561032,28731,11:09:07.026807,hand
16,121,hand2,4,cue,white,-1,-1,-1,3,3,-1,0.21577187470393255,-1,1,none,none,-1,-1,-1,566382,28731,11:09:07.026807,hand
16,122,hand2,4,cue,black,-1,-1,-1,4,4,-1,0.22559824100790138,-1,1,none,none,-1,-1,-1,568931,28731,11:09:07.026807,hand
16,123,hand2,4,gabor,0,0.01393663831150216,4,4,-1,3,0.6614772649591032,-1,1,-1,incongruent,hit,4,2,2.3663360747832485,571682,28731,11:09:07.026807,hand
16,124,hand2,4,gabor,0,0.01393663831150216,4,4,-1,4,0.5491180077860918,-1,1,-1,congruent,hit,4,1,3.4360633403211978,577965,28731,11:09:07.026807,hand
16,125,hand2,4,cue,white,-1,-1,-1,3,3,-1,0.21859076313921832,-1,1,none,none,-1,-1,-1,585382,28731,11:09:07.026807,hand
16,126,hand2,4,gabor,90,0.01393663831150216,4,3,-1,3,0.38544507410733786,-1,0,-1,incongruent,FA,c,1,1.177450966086326,588031,28731,11:09:07.026807,hand
16,127,hand2,4,cue,black,-1,-1,-1,3,4,-1,0.5382844293380913,-1,0,none,none,-1,-1,-1,593032,28731,11:09:07.026807,hand
16,128,hand2,4,cue,white,-1,-1,-1,3,3,-1,0.18602398109578644,-1,1,none,none,-1,-1,-1,596099,28731,11:09:07.026807,hand
16,129,hand2,4,cue,black,-1,-1,-1,4,4,-1,0.24291169172465743,-1,1,none,none,-1,-1,-1,598815,28731,11:09:07.026807,hand
16,130,hand2,4,gabor,0,0.01393663831150216,4,4,-1,3,0.41870112256219727,-1,1,-1,incongruent,hit,4,1,2.745654933649348,601381,28731,11:09:07.026807,hand
16,131,hand2,4,cue,white,-1,-1,-1,3,3,-1,0.26639129289469565,-1,1,none,none,-1,-1,-1,607780,28731,11:09:07.026807,hand
16,132,hand2,4,cue,black,-1,-1,-1,4,4,-1,0.3362418200013053,-1,1,none,none,-1,-1,-1,610480,28731,11:09:07.026807,hand
16,133,hand2,4,gabor,0,0.01393663831150216,3,4,-1,3,0.39210772677142813,-1,0,-1,congruent,miss,3,3,2.892966333847653,613348,28731,11:09:07.026807,hand
16,134,hand2,4,cue,black,-1,-1,-1,4,4,-1,0.21463295315516007,-1,1,none,none,-1,-1,-1,619863,28731,11:09:07.026807,hand
16,135,hand2,4,cue,black,-1,-1,-1,4,4,-1,0.27966053533236845,-1,1,none,none,-1,-1,-1,622513,28731,11:09:07.026807,hand
16,136,hand2,4,gabor,90,0.01393663831150216,4,3,-1,3,0.5052445686196734,-1,0,-1,incongruent,FA,c,1,1.6893194041367678,625331,28731,11:09:07.026807,hand
16,137,hand2,4,cue,white,-1,-1,-1,3,3,-1,0.20822795941057848,-1,1,none,none,-1,-1,-1,630863,28731,11:09:07.026807,hand
16,138,hand2,4,cue,white,-1,-1,-1,3,3,-1,0.24392850368167274,-1,1,none,none,-1,-1,-1,633496,28731,11:09:07.026807,hand
16,139,hand2,4,gabor,0,0.01393663831150216,4,4,-1,4,0.5226782089666813,-1,1,-1,congruent,hit,3,1,1.7516214080387726,636264,28731,11:09:07.026807,hand
16,140,hand2,4,gabor,90,0.01393663831150216,3,3,-1,4,0.4004019632775453,-1,1,-1,incongruent,CR,q,3,2.120268733262492,641879,28731,11:09:07.026807,hand
16,141,hand2,4,cue,black,-1,-1,-1,4,4,-1,0.2551437706060824,-1,1,none,none,-1,-1,-1,647847,28731,11:09:07.026807,hand
16,142,hand2,4,cue,black,-1,-1,-1,4,4,-1,0.16998538524967444,-1,1,none,none,-1,-1,-1,650630,28731,11:09:07.026807,hand
16,143,hand2,4,gabor,90,0.01393663831150216,4,3,-1,3,0.4427651602127298,-1,0,-1,incongruent,FA,3,1,1.5987148541335046,653129,28731,11:09:07.026807,hand
16,144,hand2,4,cue,black,-1,-1,-1,4,4,-1,0.2294565969514224,-1,1,none,none,-1,-1,-1,658512,28731,11:09:07.026807,hand
16,145,hand2,5,gabor,0,0.01393663831150216,4,4,-1,3,0.4391629272213322,-1,1,-1,incongruent,hit,4,1,2.01883521272066,683678,28731,11:09:07.026807,hand
16,146,hand2,5,cue,white,-1,-1,-1,3,3,-1,0.42960727558056533,-1,1,none,none,-1,-1,-1,689561,28731,11:09:07.026807,hand
16,147,hand2,5,gabor,90,0.01393663831150216,3,3,-1,4,0.4444432071340998,-1,1,-1,incongruent,CR,3,3,1.5883685620792676,692428,28731,11:09:07.026807,hand
16,148,hand2,5,cue,black,-1,-1,-1,4,4,-1,0.2852591449718602,-1,1,none,none,-1,-1,-1,697811,28731,11:09:07.026807,hand
16,149,hand2,5,gabor,90,0.01393663831150216,3,3,-1,4,0.42609643278592557,-1,1,-1,incongruent,CR,3,4,4.121978651557583,700428,28731,11:09:07.026807,hand
16,150,hand2,5,gabor,90,0.01393663831150216,4,3,-1,3,0.6056870046977565,-1,0,-1,incongruent,FA,c,1,1.0525255566171836,708210,28731,11:09:07.026807,hand
16,151,hand2,5,cue,white,-1,-1,-1,3,3,-1,0.23725932314300735,-1,1,none,none,-1,-1,-1,713311,28731,11:09:07.026807,hand
16,152,hand2,5,cue,black,-1,-1,-1,4,4,-1,0.2050319904101343,-1,1,none,none,-1,-1,-1,715876,28731,11:09:07.026807,hand
16,153,hand2,5,cue,black,-1,-1,-1,4,4,-1,0.17311069964125636,-1,1,none,none,-1,-1,-1,718410,28731,11:09:07.026807,hand
16,154,hand2,5,cue,white,-1,-1,-1,3,3,-1,0.22701171714470547,-1,1,none,none,-1,-1,-1,721111,28731,11:09:07.026807,hand
16,155,hand2,5,gabor,0,0.01393663831150216,4,4,-1,4,0.5108001711068937,-1,1,-1,congruent,hit,c,2,1.9116456456413289,723861,28731,11:09:07.026807,hand
16,156,hand2,5,cue,white,-1,-1,-1,3,3,-1,0.23438168386746838,-1,1,none,none,-1,-1,-1,729510,28731,11:09:07.026807,hand
16,157,hand2,5,cue,white,-1,-1,-1,3,3,-1,0.23724089150709915,-1,1,none,none,-1,-1,-1,732176,28731,11:09:07.026807,hand
16,158,hand2,5,cue,black,-1,-1,-1,4,4,-1,0.22313377758837305,-1,1,none,none,-1,-1,-1,734842,28731,11:09:07.026807,hand
16,159,hand2,5,cue,black,-1,-1,-1,4,4,-1,0.5487463031131483,-1,1,none,none,-1,-1,-1,741259,28731,11:09:07.026807,hand
16,160,hand2,5,gabor,0,0.01393663831150216,3,4,-1,4,0.5445135545487574,-1,0,-1,incongruent,miss,c,1,3.1794676943336526,744344,28731,11:09:07.026807,hand
16,161,hand2,5,cue,white,-1,-1,-1,3,3,-1,0.2451399998008128,-1,1,none,none,-1,-1,-1,751292,28731,11:09:07.026807,hand
16,162,hand2,5,cue,white,-1,-1,-1,3,3,-1,0.21910108907832182,-1,1,none,none,-1,-1,-1,754078,28731,11:09:07.026807,hand
16,163,hand2,5,cue,white,-1,-1,-1,3,3,-1,0.35094604215191794,-1,1,none,none,-1,-1,-1,756626,28731,11:09:07.026807,hand
16,164,hand2,5,cue,white,-1,-1,-1,3,3,-1,0.22677056989778066,-1,1,none,none,-1,-1,-1,759309,28731,11:09:07.026807,hand
16,165,hand2,5,cue,white,-1,-1,-1,3,3,-1,0.26761277281730145,-1,1,none,none,-1,-1,-1,761959,28731,11:09:07.026807,hand
16,166,hand2,5,gabor,0,0.01393663831150216,3,4,-1,3,0.6513690482133825,-1,0,-1,congruent,miss,c,2,1.4833923273708933,764658,28731,11:09:07.026807,hand
16,167,hand2,5,cue,white,-1,-1,-1,3,3,-1,0.2882181906425103,-1,1,none,none,-1,-1,-1,770243,28731,11:09:07.026807,hand
16,168,hand2,5,cue,white,-1,-1,-1,3,3,-1,0.2339458524602378,-1,1,none,none,-1,-1,-1,772959,28731,11:09:07.026807,hand
16,169,hand2,5,cue,black,-1,-1,-1,4,4,-1,0.20765657867195841,-1,1,none,none,-1,-1,-1,775525,28731,11:09:07.026807,hand
16,170,hand2,5,cue,black,-1,-1,-1,4,4,-1,0.3867076412188908,-1,1,none,none,-1,-1,-1,778158,28731,11:09:07.026807,hand
16,171,hand2,5,gabor,90,0.01393663831150216,3,3,-1,3,0.5304809351600852,-1,1,-1,congruent,CR,q,3,2.0673914395811153,780974,28731,11:09:07.026807,hand
16,172,hand2,5,gabor,90,0.01393663831150216,3,3,-1,3,0.49416677098452055,-1,1,-1,congruent,CR,4,3,1.8459767961048783,787025,28731,11:09:07.026807,hand
16,173,hand2,5,cue,black,-1,-1,-1,4,4,-1,0.3208871146744059,-1,1,none,none,-1,-1,-1,792792,28731,11:09:07.026807,hand
16,174,hand2,5,cue,black,-1,-1,-1,4,4,-1,0.23674208534066565,-1,1,none,none,-1,-1,-1,795541,28731,11:09:07.026807,hand
16,175,hand2,5,gabor,0,0.01393663831150216,3,4,-1,4,0.6944848703133175,-1,0,-1,incongruent,miss,c,2,1.7124361324586062,798107,28731,11:09:07.026807,hand
16,176,hand2,5,cue,black,-1,-1,-1,4,4,-1,0.2812249204944237,-1,1,none,none,-1,-1,-1,803840,28731,11:09:07.026807,hand
16,177,hand2,5,gabor,90,0.01393663831150216,4,3,-1,4,0.4828044349578704,-1,0,-1,congruent,FA,4,1,0.947685639221163,809490,28731,11:09:07.026807,hand
16,178,hand2,5,cue,black,-1,-1,-1,4,4,-1,0.4335762213468115,-1,1,none,none,-1,-1,-1,814274,28731,11:09:07.026807,hand
16,179,hand2,5,gabor,0,0.01393663831150216,3,4,-1,3,0.7883518200087565,-1,0,-1,congruent,miss,3,2,3.15820065754815,817140,28731,11:09:07.026807,hand
16,180,hand2,5,cue,black,-1,-1,-1,4,4,-1,0.33412141379812965,-1,1,none,none,-1,-1,-1,824525,28731,11:09:07.026807,hand
16,181,hand2,6,gabor,0,0.01393663831150216,3,4,-1,4,0.4726247956205043,-1,0,-1,incongruent,miss,3,3,1.5656166265653155,847372,28731,11:09:07.026807,hand
16,182,hand2,6,gabor,90,0.01393663831150216,3,3,-1,3,0.5044239767939871,-1,1,-1,congruent,CR,3,3,1.335294126682129,852722,28731,11:09:07.026807,hand
16,183,hand2,6,cue,black,-1,-1,-1,4,4,-1,0.4511776663857745,-1,1,none,none,-1,-1,-1,857906,28731,11:09:07.026807,hand
16,184,hand2,6,cue,black,-1,-1,-1,4,4,-1,0.7386854710312036,-1,1,none,none,-1,-1,-1,864555,28731,11:09:07.026807,hand
16,185,hand2,6,cue,white,-1,-1,-1,3,3,-1,0.23661421586075448,-1,1,none,none,-1,-1,-1,867722,28731,11:09:07.026807,hand
16,186,hand2,6,cue,black,-1,-1,-1,4,4,-1,0.3063207458053512,-1,1,none,none,-1,-1,-1,870489,28731,11:09:07.026807,hand
16,187,hand2,6,gabor,90,0.01393663831150216,3,3,-1,4,0.5872561360083637,-1,1,-1,incongruent,CR,q,3,3.7021435993465275,873322,28731,11:09:07.026807,hand
16,188,hand2,6,cue,white,-1,-1,-1,3,3,-1,0.5785341319351573,-1,1,none,none,-1,-1,-1,884721,28731,11:09:07.026807,hand
16,189,hand2,6,cue,white,-1,-1,-1,3,3,-1,0.3664735440725053,-1,1,none,none,-1,-1,-1,887839,28731,11:09:07.026807,hand
16,190,hand2,6,gabor,0,0.01393663831150216,4,4,-1,4,0.562257076788228,-1,1,-1,congruent,hit,c,1,1.047117791213168,890537,28731,11:09:07.026807,hand
16,191,hand2,6,cue,white,-1,-1,-1,3,3,-1,0.2416779240447795,-1,1,none,none,-1,-1,-1,899154,28731,11:09:07.026807,hand
16,192,hand2,6,cue,black,-1,-1,-1,4,4,-1,0.21465868064842653,-1,1,none,none,-1,-1,-1,901922,28731,11:09:07.026807,hand
16,193,hand2,6,cue,black,-1,-1,-1,4,4,-1,0.15242272344403318,-1,1,none,none,-1,-1,-1,904570,28731,11:09:07.026807,hand
16,194,hand2,6,cue,white,-1,-1,-1,3,3,-1,0.35925487036911363,-1,1,none,none,-1,-1,-1,907255,28731,11:09:07.026807,hand
16,195,hand2,6,cue,white,-1,-1,-1,3,3,-1,0.2902379908300645,-1,1,none,none,-1,-1,-1,910139,28731,11:09:07.026807,hand
16,196,hand2,6,cue,black,-1,-1,-1,4,4,-1,0.14464726071309997,-1,1,none,none,-1,-1,-1,918620,28731,11:09:07.026807,hand
16,197,hand2,6,cue,white,-1,-1,-1,3,3,-1,0.20546974178068922,-1,1,none,none,-1,-1,-1,921087,28731,11:09:07.026807,hand
16,198,hand2,6,cue,white,-1,-1,-1,3,3,-1,0.34327464137095376,-1,1,none,none,-1,-1,-1,923821,28731,11:09:07.026807,hand
16,199,hand2,6,cue,black,-1,-1,-1,4,4,-1,0.281307478868257,-1,1,none,none,-1,-1,-1,926687,28731,11:09:07.026807,hand
16,200,hand2,6,gabor,0,0.01393663831150216,3,4,-1,3,0.48472055718775664,-1,0,-1,congruent,miss,c,3,3.05871628258501,933171,28731,11:09:07.026807,hand
16,201,hand2,6,cue,black,-1,-1,-1,4,4,-1,0.41736137297266396,-1,1,none,none,-1,-1,-1,940154,28731,11:09:07.026807,hand
16,202,hand2,6,gabor,90,0.01393663831150216,3,3,-1,3,0.5222907606057561,-1,1,-1,congruent,CR,4,4,4.612074718783333,943103,28731,11:09:07.026807,hand
16,203,hand2,6,cue,black,-1,-1,-1,4,4,-1,0.49562402225819824,-1,1,none,none,-1,-1,-1,951671,28731,11:09:07.026807,hand
16,204,hand2,6,gabor,0,0.01393663831150216,3,4,-1,3,0.5983723328845372,-1,0,-1,congruent,miss,3,2,1.6274935508463386,954704,28731,11:09:07.026807,hand
16,205,hand2,6,cue,white,-1,-1,-1,3,3,-1,0.3042959537197021,-1,1,none,none,-1,-1,-1,960169,28731,11:09:07.026807,hand
16,206,hand2,6,cue,white,-1,-1,-1,3,3,-1,0.2222083558281156,-1,1,none,none,-1,-1,-1,962803,28731,11:09:07.026807,hand
16,207,hand2,6,cue,white,-1,-1,-1,3,3,-1,0.31984342324540194,-1,1,none,none,-1,-1,-1,965553,28731,11:09:07.026807,hand
16,208,hand2,6,cue,white,-1,-1,-1,3,3,-1,0.1967016586168029,-1,1,none,none,-1,-1,-1,968403,28731,11:09:07.026807,hand
16,209,hand2,6,gabor,90,0.01393663831150216,3,3,-1,4,0.5175373183028569,-1,1,-1,incongruent,CR,4,3,1.1354636977393966,970936,28731,11:09:07.026807,hand
16,210,hand2,6,cue,black,-1,-1,-1,4,4,-1,0.5083959944986418,-1,1,none,none,-1,-1,-1,975835,28731,11:09:07.026807,hand
16,211,hand2,6,gabor,0,0.01393663831150216,4,4,-1,3,0.7921978881950054,-1,1,-1,incongruent,hit,3,1,1.7369674888977897,978869,28731,11:09:07.026807,hand
16,212,hand2,6,gabor,0,0.01393663831150216,4,4,-1,4,0.6457162956394313,-1,1,-1,congruent,hit,q,1,1.3187548047044402,984735,28731,11:09:07.026807,hand
16,213,hand2,6,gabor,90,0.01393663831150216,3,3,-1,3,0.43751483170672145,-1,1,-1,congruent,CR,c,3,1.7024335136302398,990152,28731,11:09:07.026807,hand
16,214,hand2,6,cue,black,-1,-1,-1,4,4,-1,0.3602298271489417,-1,1,none,none,-1,-1,-1,995534,28731,11:09:07.026807,hand
16,215,hand2,6,cue,black,-1,-1,-1,4,4,-1,0.3291164564561768,-1,1,none,none,-1,-1,-1,998419,28731,11:09:07.026807,hand
16,216,hand2,6,gabor,90,0.01393663831150216,3,3,-1,4,0.5868176166513877,-1,1,-1,incongruent,CR,q,2,2.5397631841879047,1001286,28731,11:09:07.026807,hand
16,217,hand2,7,gabor,0,0.01393663831150216,3,4,-1,3,0.4482382043279358,-1,0,-1,congruent,miss,q,1,1.1733253514103126,1029599,28731,11:09:07.026807,hand
16,218,hand2,7,cue,black,-1,-1,-1,4,4,-1,0.30286826986048254,-1,1,none,none,-1,-1,-1,1038417,28731,11:09:07.026807,hand
16,219,hand2,7,cue,black,-1,-1,-1,4,4,-1,0.23853840193078213,-1,1,none,none,-1,-1,-1,1041150,28731,11:09:07.026807,hand
16,220,hand2,7,gabor,0,0.01393663831150216,3,4,-1,4,0.593227218303582,-1,0,-1,incongruent,miss,4,2,2.697089490971848,1049382,28731,11:09:07.026807,hand
16,221,hand2,7,cue,white,-1,-1,-1,3,3,-1,0.6047635029008234,-1,1,none,none,-1,-1,-1,1056117,28731,11:09:07.026807,hand
16,222,hand2,7,gabor,90,0.01393663831150216,3,3,-1,3,0.4595667490193591,-1,1,-1,congruent,CR,4,1,6.247462002029351,1059049,28731,11:09:07.026807,hand
16,223,hand2,7,gabor,90,0.01393663831150216,3,3,-1,4,0.5150283117618528,-1,1,-1,incongruent,CR,q,3,2.419906090812219,1069217,28731,11:09:07.026807,hand
16,224,hand2,7,cue,black,-1,-1,-1,4,4,-1,0.49539055486093275,-1,1,none,none,-1,-1,-1,1079248,28731,11:09:07.026807,hand
16,225,hand2,7,gabor,0,0.01393663831150216,3,4,-1,4,0.51624633575193,-1,0,-1,incongruent,miss,4,2,4.923210345677944,1082283,28731,11:09:07.026807,hand
16,226,hand2,7,cue,white,-1,-1,-1,3,3,-1,0.4367145914820867,-1,1,none,none,-1,-1,-1,1091065,28731,11:09:07.026807,hand
16,227,hand2,7,cue,white,-1,-1,-1,3,3,-1,0.2096433555107069,-1,1,none,none,-1,-1,-1,1094032,28731,11:09:07.026807,hand
16,228,hand2,7,cue,black,-1,-1,-1,4,4,-1,0.21545508095005061,-1,1,none,none,-1,-1,-1,1096564,28731,11:09:07.026807,hand
16,229,hand2,7,cue,black,-1,-1,-1,4,4,-1,0.28229433941487514,-1,1,none,none,-1,-1,-1,1099214,28731,11:09:07.026807,hand
16,230,hand2,7,cue,white,-1,-1,-1,3,3,-1,0.2832312809459836,-1,1,none,none,-1,-1,-1,1101931,28731,11:09:07.026807,hand
16,231,hand2,7,gabor,90,0.01393663831150216,3,3,-1,3,0.43579838554069283,-1,1,-1,congruent,CR,3,3,1.9817258002203744,1107481,28731,11:09:07.026807,hand
16,232,hand2,7,cue,white,-1,-1,-1,3,3,-1,0.22352084195699717,-1,1,none,none,-1,-1,-1,1113348,28731,11:09:07.026807,hand
16,233,hand2,7,gabor,90,0.01393663831150216,3,3,-1,4,0.4623222787031409,-1,1,-1,incongruent,CR,4,3,1.1692584875763714,1115997,28731,11:09:07.026807,hand
16,234,hand2,7,cue,white,-1,-1,-1,3,3,-1,0.3281180761368887,-1,1,none,none,-1,-1,-1,1120964,28731,11:09:07.026807,hand
16,235,hand2,7,cue,white,-1,-1,-1,3,3,-1,0.145051220752066,-1,1,none,none,-1,-1,-1,1123731,28731,11:09:07.026807,hand
16,236,hand2,7,cue,black,-1,-1,-1,4,4,-1,0.14974629619973712,-1,1,none,none,-1,-1,-1,1126197,28731,11:09:07.026807,hand
16,237,hand2,7,cue,black,-1,-1,-1,4,4,-1,0.16362647059395385,-1,1,none,none,-1,-1,-1,1128780,28731,11:09:07.026807,hand
16,238,hand2,7,cue,white,-1,-1,-1,3,3,-1,0.1774985811480292,-1,1,none,none,-1,-1,-1,1131280,28731,11:09:07.026807,hand
16,239,hand2,7,gabor,0,0.01393663831150216,3,4,-1,4,0.6511862678162288,-1,0,-1,incongruent,miss,4,1,0.9249717189577495,1137647,28731,11:09:07.026807,hand
16,240,hand2,7,cue,black,-1,-1,-1,4,4,-1,0.4148074393160641,-1,1,none,none,-1,-1,-1,1142665,28731,11:09:07.026807,hand
16,241,hand2,7,cue,black,-1,-1,-1,4,4,-1,0.48061721407248115,-1,1,none,none,-1,-1,-1,1145614,28731,11:09:07.026807,hand
16,242,hand2,7,cue,black,-1,-1,-1,4,4,-1,0.3554959684624919,-1,1,none,none,-1,-1,-1,1148530,28731,11:09:07.026807,hand
16,243,hand2,7,cue,white,-1,-1,-1,3,3,-1,0.22633627445975435,-1,1,none,none,-1,-1,-1,1151312,28731,11:09:07.026807,hand
16,244,hand2,7,cue,black,-1,-1,-1,4,4,-1,0.1921832196858304,-1,1,none,none,-1,-1,-1,1154063,28731,11:09:07.026807,hand
16,245,hand2,7,cue,white,-1,-1,-1,3,3,-1,0.22517239340049855,-1,1,none,none,-1,-1,-1,1156580,28731,11:09:07.026807,hand
16,246,hand2,7,gabor,90,0.01393663831150216,3,3,-1,4,0.4328385718854406,-1,1,-1,incongruent,CR,q,3,2.1367658160706924,1159229,28731,11:09:07.026807,hand
16,247,hand2,7,gabor,0,0.01393663831150216,4,4,-1,3,0.509573315290254,-1,1,-1,incongruent,hit,4,2,1.1394764186406974,1165045,28731,11:09:07.026807,hand
16,248,hand2,7,cue,white,-1,-1,-1,3,3,-1,0.35832061678411264,-1,1,none,none,-1,-1,-1,1170130,28731,11:09:07.026807,hand
16,249,hand2,7,cue,white,-1,-1,-1,3,3,-1,0.28916895590009517,-1,1,none,none,-1,-1,-1,1173013,28731,11:09:07.026807,hand
16,250,hand2,7,gabor,0,0.01393663831150216,4,4,-1,3,0.6329520032504661,-1,1,-1,incongruent,hit,4,2,1.5768637648616277,1175729,28731,11:09:07.026807,hand
16,251,hand2,7,cue,black,-1,-1,-1,3,4,-1,0.6825707371663157,-1,0,none,none,-1,-1,-1,1181379,28731,11:09:07.026807,hand
16,252,hand2,7,gabor,90,0.01393663831150216,3,3,-1,3,0.45435174781778187,-1,1,-1,congruent,CR,3,3,1.541286866153314,1184495,28731,11:09:07.026807,hand
16,253,hand2,8,cue,white,-1,-1,-1,3,3,-1,0.2462489699391881,-1,1,none,none,-1,-1,-1,1223993,28731,11:09:07.026807,hand
16,254,hand2,8,gabor,90,0.01393663831150216,3,3,-1,3,0.42198848176303727,-1,1,-1,congruent,CR,3,3,1.2869694472574338,1226711,28731,11:09:07.026807,hand
16,255,hand2,8,cue,black,-1,-1,-1,4,4,-1,0.40868352803045127,-1,1,none,none,-1,-1,-1,1231861,28731,11:09:07.026807,hand
16,256,hand2,8,cue,black,-1,-1,-1,4,4,-1,0.22356615306489402,-1,1,none,none,-1,-1,-1,1234593,28731,11:09:07.026807,hand
16,257,hand2,8,cue,white,-1,-1,-1,3,3,-1,0.19235678426230152,-1,1,none,none,-1,-1,-1,1237344,28731,11:09:07.026807,hand
16,258,hand2,8,cue,white,-1,-1,-1,3,3,-1,0.2501434211717424,-1,1,none,none,-1,-1,-1,1239959,28731,11:09:07.026807,hand
16,259,hand2,8,gabor,0,0.01393663831150216,4,4,-1,3,0.5610847478983487,-1,1,-1,incongruent,hit,4,2,1.5751342629537248,1242543,28731,11:09:07.026807,hand
16,260,hand2,8,cue,white,-1,-1,-1,3,3,-1,0.2327923391985678,-1,1,none,none,-1,-1,-1,1248127,28731,11:09:07.026807,hand
16,261,hand2,8,cue,black,-1,-1,-1,4,4,-1,0.283770022324461,-1,1,none,none,-1,-1,-1,1250793,28731,11:09:07.026807,hand
16,262,hand2,8,cue,white,-1,-1,-1,3,3,-1,0.1585170673115499,-1,1,none,none,-1,-1,-1,1253409,28731,11:09:07.026807,hand
16,263,hand2,8,cue,white,-1,-1,-1,3,3,-1,0.2172744370855071,-1,1,none,none,-1,-1,-1,1256093,28731,11:09:07.026807,hand
16,264,hand2,8,gabor,90,0.01393663831150216,3,3,-1,4,0.4112754769375897,-1,1,-1,incongruent,CR,c,2,4.357114112566705,1258642,28731,11:09:07.026807,hand
16,265,hand2,8,cue,black,-1,-1,-1,4,4,-1,0.42575314355417504,-1,1,none,none,-1,-1,-1,1266642,28731,11:09:07.026807,hand
16,266,hand2,8,cue,white,-1,-1,-1,3,3,-1,0.20955964516178938,-1,1,none,none,-1,-1,-1,1269492,28731,11:09:07.026807,hand
16,267,hand2,8,gabor,0,0.01393663831150216,4,4,-1,3,0.6483646914348355,-1,1,-1,incongruent,hit,3,2,1.5333482066398574,1272226,28731,11:09:07.026807,hand
16,268,hand2,8,cue,black,-1,-1,-1,3,4,-1,0.265176340844846,-1,0,none,none,-1,-1,-1,1277759,28731,11:09:07.026807,hand
16,269,hand2,8,cue,white,-1,-1,-1,3,3,-1,0.21494705896293453,-1,1,none,none,-1,-1,-1,1280459,28731,11:09:07.026807,hand
16,270,hand2,8,cue,black,-1,-1,-1,4,4,-1,0.2557954057610914,-1,1,none,none,-1,-1,-1,1283209,28731,11:09:07.026807,hand
16,271,hand2,8,cue,white,-1,-1,-1,3,3,-1,0.20262627783085918,-1,1,none,none,-1,-1,-1,1285892,28731,11:09:07.026807,hand
16,272,hand2,8,cue,white,-1,-1,-1,3,3,-1,0.2084944501566497,-1,1,none,none,-1,-1,-1,1288626,28731,11:09:07.026807,hand
16,273,hand2,8,cue,black,-1,-1,-1,4,4,-1,0.37930925905675394,-1,1,none,none,-1,-1,-1,1291258,28731,11:09:07.026807,hand
16,274,hand2,8,cue,white,-1,-1,-1,3,3,-1,0.45531710479008325,-1,1,none,none,-1,-1,-1,1294176,28731,11:09:07.026807,hand
16,275,hand2,8,gabor,0,0.01393663831150216,3,4,-1,4,0.514019947639099,-1,0,-1,incongruent,miss,3,1,2.7988774365276186,1296958,28731,11:09:07.026807,hand
16,276,hand2,8,cue,black,-1,-1,-1,4,4,-1,0.4636620282944932,-1,1,none,none,-1,-1,-1,1303624,28731,11:09:07.026807,hand
16,277,hand2,8,gabor,0,0.01393663831150216,4,4,-1,4,0.7424186454427399,-1,1,-1,congruent,hit,c,2,1.7053315045050113,1306425,28731,11:09:07.026807,hand
16,278,hand2,8,cue,black,-1,-1,-1,4,4,-1,0.4592568671268964,-1,1,none,none,-1,-1,-1,1312309,28731,11:09:07.026807,hand
16,279,hand2,8,gabor,90,0.01393663831150216,3,3,-1,3,0.5120519864321977,-1,1,-1,congruent,CR,c,3,3.3038075153453974,1315292,28731,11:09:07.026807,hand
16,280,hand2,8,gabor,90,0.01393663831150216,3,3,-1,4,0.5675749879610521,-1,1,-1,incongruent,CR,q,2,1.7873250242500944,1322558,28731,11:09:07.026807,hand
16,281,hand2,8,cue,white,-1,-1,-1,3,3,-1,0.2952529319736641,-1,1,none,none,-1,-1,-1,1328358,28731,11:09:07.026807,hand
16,282,hand2,8,gabor,0,0.01393663831150216,3,4,-1,4,0.41580697161225544,-1,0,-1,incongruent,miss,4,3,5.818654966673421,1334657,28731,11:09:07.026807,hand
16,283,hand2,8,gabor,90,0.01393663831150216,3,3,-1,3,0.4412649017849617,-1,1,-1,congruent,CR,c,4,1.5902716285654606,1344240,28731,11:09:07.026807,hand
16,284,hand2,8,cue,black,-1,-1,-1,4,4,-1,0.6308780601320905,-1,1,none,none,-1,-1,-1,1352539,28731,11:09:07.026807,hand
16,285,hand2,8,gabor,0,0.01393663831150216,3,4,-1,3,0.4336180765203608,-1,0,-1,congruent,miss,c,3,4.387525929088952,1355507,28731,11:09:07.026807,hand
16,286,hand2,8,cue,black,-1,-1,-1,4,4,-1,0.44028725705720717,-1,1,none,none,-1,-1,-1,1363572,28731,11:09:07.026807,hand
16,287,hand2,8,gabor,90,0.01393663831150216,3,3,-1,4,0.525058578044991,-1,1,-1,incongruent,CR,3,4,4.683863639680567,1366439,28731,11:09:07.026807,hand
16,288,hand2,8,cue,black,-1,-1,-1,4,4,-1,0.41945029179441917,-1,1,none,none,-1,-1,-1,1374989,28731,11:09:07.026807,hand
16,289,hand2,9,gabor,0,0.01393663831150216,3,4,-1,3,0.4319335017262347,-1,0,-1,congruent,miss,q,2,1.7247960808199423,1386705,28731,11:09:07.026807,hand
16,290,hand2,9,cue,black,-1,-1,-1,4,4,-1,0.3945418547918962,-1,1,none,none,-1,-1,-1,1392339,28731,11:09:07.026807,hand
16,291,hand2,9,cue,black,-1,-1,-1,4,4,-1,0.25236481738465955,-1,1,none,none,-1,-1,-1,1395273,28731,11:09:07.026807,hand
16,292,hand2,9,cue,black,-1,-1,-1,4,4,-1,0.3072227440261486,-1,1,none,none,-1,-1,-1,1397954,28731,11:09:07.026807,hand
16,293,hand2,9,cue,white,-1,-1,-1,3,3,-1,0.4399366719680984,-1,1,none,none,-1,-1,-1,1404355,28731,11:09:07.026807,hand
16,294,hand2,9,gabor,0,0.01393663831150216,3,4,-1,4,0.4026805743596924,-1,0,-1,incongruent,miss,4,2,2.5285721087875572,1407221,28731,11:09:07.026807,hand
16,295,hand2,9,cue,black,-1,-1,-1,4,4,-1,0.3813209954005288,-1,1,none,none,-1,-1,-1,1413487,28731,11:09:07.026807,hand
16,296,hand2,9,cue,black,-1,-1,-1,4,4,-1,0.23130360054346966,-1,1,none,none,-1,-1,-1,1416204,28731,11:09:07.026807,hand
16,297,hand2,9,cue,black,-1,-1,-1,4,4,-1,0.2761074533700594,-1,1,none,none,-1,-1,-1,1418871,28731,11:09:07.026807,hand
16,298,hand2,9,cue,white,-1,-1,-1,3,3,-1,0.2119150547296158,-1,1,none,none,-1,-1,-1,1421672,28731,11:09:07.026807,hand
16,299,hand2,9,cue,white,-1,-1,-1,3,3,-1,0.25274381791496126,-1,1,none,none,-1,-1,-1,1424204,28731,11:09:07.026807,hand
16,300,hand2,9,cue,black,-1,-1,-1,4,4,-1,0.25850754429848166,-1,1,none,none,-1,-1,-1,1426787,28731,11:09:07.026807,hand
16,301,hand2,9,cue,white,-1,-1,-1,3,3,-1,0.19031240856202203,-1,1,none,none,-1,-1,-1,1429470,28731,11:09:07.026807,hand
16,302,hand2,9,cue,white,-1,-1,-1,3,3,-1,0.27326283744332613,-1,1,none,none,-1,-1,-1,1431987,28731,11:09:07.026807,hand
16,303,hand2,9,gabor,90,0.01393663831150216,3,3,-1,4,0.4131393761963409,-1,1,-1,incongruent,CR,c,3,2.29204544320055,1434788,28731,11:09:07.026807,hand
16,304,hand2,9,cue,white,-1,-1,-1,3,3,-1,0.31377403888654953,-1,1,none,none,-1,-1,-1,1440938,28731,11:09:07.026807,hand
16,305,hand2,9,cue,white,-1,-1,-1,3,3,-1,0.2216419669930474,-1,1,none,none,-1,-1,-1,1443687,28731,11:09:07.026807,hand
16,306,hand2,9,gabor,90,0.01393663831150216,3,3,-1,4,0.43940868237586983,-1,1,-1,incongruent,CR,3,3,3.710359501394123,1446437,28731,11:09:07.026807,hand
16,307,hand2,9,cue,white,-1,-1,-1,3,3,-1,0.3211225020331767,-1,1,none,none,-1,-1,-1,1453920,28731,11:09:07.026807,hand
16,308,hand2,9,gabor,0,0.01393663831150216,3,4,-1,3,0.5458506161921832,-1,0,-1,congruent,miss,q,1,1.511788567622716,1456771,28731,11:09:07.026807,hand
16,309,hand2,9,gabor,90,0.01393663831150216,3,3,-1,3,0.36449099115270656,-1,1,-1,congruent,CR,3,2,5.5124256110666465,1462170,28731,11:09:07.026807,hand
16,310,hand2,9,cue,white,-1,-1,-1,3,3,-1,0.3191649086220423,-1,1,none,none,-1,-1,-1,1471286,28731,11:09:07.026807,hand
16,311,hand2,9,cue,black,-1,-1,-1,4,4,-1,0.18296048948286625,-1,1,none,none,-1,-1,-1,1474036,28731,11:09:07.026807,hand
16,312,hand2,9,gabor,90,0.01393663831150216,3,3,-1,3,0.4637641702811379,-1,1,-1,congruent,CR,4,4,1.150569959963832,1476652,28731,11:09:07.026807,hand
16,313,hand2,9,cue,black,-1,-1,-1,3,4,-1,0.5975167977503588,-1,0,none,none,-1,-1,-1,1481618,28731,11:09:07.026807,hand
16,314,hand2,9,gabor,0,0.01393663831150216,4,4,-1,3,0.5902386052166548,-1,1,-1,incongruent,hit,3,1,1.506188038021719,1484752,28731,11:09:07.026807,hand
16,315,hand2,9,gabor,0,0.01393663831150216,3,4,-1,4,0.49805200639821123,-1,0,-1,incongruent,miss,q,2,1.4628172449465637,1490286,28731,11:09:07.026807,hand
16,316,hand2,9,cue,white,-1,-1,-1,3,3,-1,0.6016485563031893,-1,1,none,none,-1,-1,-1,1495468,28731,11:09:07.026807,hand
16,317,hand2,9,cue,black,-1,-1,-1,4,4,-1,0.4095390631664486,-1,1,none,none,-1,-1,-1,1498401,28731,11:09:07.026807,hand
16,318,hand2,9,cue,black,-1,-1,-1,3,4,-1,0.24934663687781722,-1,0,none,none,-1,-1,-1,1501235,28731,11:09:07.026807,hand
16,319,hand2,9,cue,white,-1,-1,-1,3,3,-1,0.2661447697537369,-1,1,none,none,-1,-1,-1,1504018,28731,11:09:07.026807,hand
16,320,hand2,9,cue,white,-1,-1,-1,3,3,-1,0.23322817060579837,-1,1,none,none,-1,-1,-1,1506718,28731,11:09:07.026807,hand
16,321,hand2,9,gabor,0,0.01393663831150216,3,4,-1,4,0.660789918509181,-1,0,-1,incongruent,miss,c,1,0.9127500078720914,1509486,28731,11:09:07.026807,hand
16,322,hand2,9,gabor,90,0.01393663831150216,3,3,-1,3,0.46156005372722575,-1,1,-1,congruent,CR,3,3,3.188519163910314,1514284,28731,11:09:07.026807,hand
16,323,hand2,9,cue,black,-1,-1,-1,4,4,-1,0.2292496250320255,-1,1,none,none,-1,-1,-1,1521167,28731,11:09:07.026807,hand
16,324,hand2,9,gabor,90,0.01393663831150216,3,3,-1,4,0.3597506045953196,-1,1,-1,incongruent,CR,c,3,3.4317027222750767,1527601,28731,11:09:07.026807,hand
16,325,hand2,10,gabor,0,0.01393663831150216,4,4,-1,4,0.49299252213131695,-1,1,-1,congruent,hit,q,2,1.4978043312803493,1560049,28731,11:09:07.026807,hand
16,326,hand2,10,cue,white,-1,-1,-1,3,3,-1,0.26562254004784336,-1,1,none,none,-1,-1,-1,1565383,28731,11:09:07.026807,hand
16,327,hand2,10,cue,black,-1,-1,-1,4,4,-1,0.28458677422531764,-1,1,none,none,-1,-1,-1,1567982,28731,11:09:07.026807,hand
16,328,hand2,10,gabor,0,0.01393663831150216,4,4,-1,3,0.5633053761230258,-1,1,-1,incongruent,hit,3,2,2.5492712207651493,1570699,28731,11:09:07.026807,hand
16,329,hand2,10,cue,black,-1,-1,-1,4,4,-1,0.3750192956194951,-1,1,none,none,-1,-1,-1,1577066,28731,11:09:07.026807,hand
16,330,hand2,10,cue,white,-1,-1,-1,3,3,-1,0.18986198544189392,-1,1,none,none,-1,-1,-1,1579866,28731,11:09:07.026807,hand
16,331,hand2,10,gabor,0,0.01393663831150216,4,4,-1,4,0.5836427672347781,-1,1,-1,congruent,hit,c,1,1.7295767865834932,1582583,28731,11:09:07.026807,hand
16,332,hand2,10,cue,white,-1,-1,-1,3,3,-1,0.518316438947295,-1,1,none,none,-1,-1,-1,1588333,28731,11:09:07.026807,hand
16,333,hand2,10,cue,black,-1,-1,-1,4,4,-1,0.22033024885058694,-1,1,none,none,-1,-1,-1,1591382,28731,11:09:07.026807,hand
16,334,hand2,10,cue,white,-1,-1,-1,3,3,-1,0.15813192290261213,-1,1,none,none,-1,-1,-1,1593932,28731,11:09:07.026807,hand
16,335,hand2,10,cue,white,-1,-1,-1,3,3,-1,0.14596627471291868,-1,1,none,none,-1,-1,-1,1596616,28731,11:09:07.026807,hand
16,336,hand2,10,cue,white,-1,-1,-1,3,3,-1,0.21974773233159794,-1,1,none,none,-1,-1,-1,1599099,28731,11:09:07.026807,hand
16,337,hand2,10,gabor,90,0.01393663831150216,3,3,-1,3,0.4985162532484537,-1,1,-1,congruent,CR,3,3,3.8323208732908824,1601849,28731,11:09:07.026807,hand
16,338,hand2,10,gabor,0,0.01393663831150216,3,4,-1,3,0.5841634609696484,-1,0,-1,congruent,miss,4,3,2.8622062361919234,1609616,28731,11:09:07.026807,hand
16,339,hand2,10,cue,black,-1,-1,-1,4,4,-1,0.37272724480135366,-1,1,none,none,-1,-1,-1,1616398,28731,11:09:07.026807,hand
16,340,hand2,10,cue,black,-1,-1,-1,4,4,-1,0.3376499202440755,-1,1,none,none,-1,-1,-1,1619198,28731,11:09:07.026807,hand
16,341,hand2,10,gabor,90,0.01393663831150216,3,3,-1,4,0.45330959236162016,-1,1,-1,incongruent,CR,4,3,2.9681846911425964,1621864,28731,11:09:07.026807,hand
16,342,hand2,10,cue,black,-1,-1,-1,4,4,-1,0.6880430132969195,-1,1,none,none,-1,-1,-1,1628732,28731,11:09:07.026807,hand
16,343,hand2,10,cue,white,-1,-1,-1,3,3,-1,0.21770258864671632,-1,1,none,none,-1,-1,-1,1634580,28731,11:09:07.026807,hand
16,344,hand2,10,cue,black,-1,-1,-1,4,4,-1,0.2134994075004215,-1,1,none,none,-1,-1,-1,1637331,28731,11:09:07.026807,hand
16,345,hand2,10,gabor,0,0.01393663831150216,3,4,-1,3,0.6322239536002598,-1,0,-1,congruent,miss,c,1,1.1983159627961868,1640082,28731,11:09:07.026807,hand
16,346,hand2,10,cue,black,-1,-1,-1,4,4,-1,0.7957452102709794,-1,1,none,none,-1,-1,-1,1648930,28731,11:09:07.026807,hand
16,347,hand2,10,gabor,90,0.01393663831150216,3,3,-1,3,0.3996435782246408,-1,1,-1,congruent,CR,3,3,1.204620350523328,1652163,28731,11:09:07.026807,hand
16,348,hand2,10,cue,white,-1,-1,-1,4,3,-1,0.6404413916188787,-1,0,none,none,-1,-1,-1,1657113,28731,11:09:07.026807,hand
16,349,hand2,10,gabor,90,0.01393663831150216,3,3,-1,4,0.3802120252603345,-1,1,-1,incongruent,CR,c,3,5.313138531413642,1660079,28731,11:09:07.026807,hand
16,350,hand2,10,cue,black,-1,-1,-1,4,4,-1,0.3057090458623861,-1,1,none,none,-1,-1,-1,1669096,28731,11:09:07.026807,hand
16,351,hand2,10,cue,white,-1,-1,-1,3,3,-1,0.27748521821195027,-1,1,none,none,-1,-1,-1,1671930,28731,11:09:07.026807,hand
16,352,hand2,10,gabor,0,0.01393663831150216,3,4,-1,4,0.574414277145479,-1,0,-1,incongruent,miss,3,2,1.4983192651307036,1674529,28731,11:09:07.026807,hand
16,353,hand2,10,cue,black,-1,-1,-1,4,4,-1,0.42816500001026725,-1,1,none,none,-1,-1,-1,1680047,28731,11:09:07.026807,hand
16,354,hand2,10,cue,white,-1,-1,-1,3,3,-1,0.27099920206273964,-1,1,none,none,-1,-1,-1,1682913,28731,11:09:07.026807,hand
16,355,hand2,10,cue,black,-1,-1,-1,4,4,-1,0.29261835990655527,-1,1,none,none,-1,-1,-1,1685713,28731,11:09:07.026807,hand
16,356,hand2,10,gabor,90,0.01393663831150216,4,3,-1,3,0.5535880636725778,-1,0,-1,incongruent,FA,4,1,1.4565312888553308,1688328,28731,11:09:07.026807,hand
16,357,hand2,10,cue,white,-1,-1,-1,3,3,-1,0.4362941197705368,-1,1,none,none,-1,-1,-1,1693779,28731,11:09:07.026807,hand
16,358,hand2,10,cue,white,-1,-1,-1,3,3,-1,0.30821728442060703,-1,1,none,none,-1,-1,-1,1696644,28731,11:09:07.026807,hand
16,359,hand2,10,gabor,90,0.01393663831150216,4,3,-1,4,0.6668715906271245,-1,0,-1,congruent,FA,c,1,1.66982103648661,1702111,28731,11:09:07.026807,hand
16,360,hand2,10,cue,black,-1,-1,-1,4,4,-1,0.5276416951273859,-1,1,none,none,-1,-1,-1,1707795,28731,11:09:07.026807,hand
16,361,hand2,11,cue,black,-1,-1,-1,4,4,-1,0.2426605606742669,-1,1,none,none,-1,-1,-1,1722512,28731,11:09:07.026807,hand
16,362,hand2,11,cue,white,-1,-1,-1,3,3,-1,0.22151601747646055,-1,1,none,none,-1,-1,-1,1725328,28731,11:09:07.026807,hand
16,363,hand2,11,cue,white,-1,-1,-1,3,3,-1,0.48037952275808493,-1,1,none,none,-1,-1,-1,1727877,28731,11:09:07.026807,hand
16,364,hand2,11,cue,black,-1,-1,-1,4,4,-1,0.18426721572541283,-1,1,none,none,-1,-1,-1,1730693,28731,11:09:07.026807,hand
16,365,hand2,11,gabor,0,0.01393663831150216,3,4,-1,3,0.5641394076847064,-1,0,-1,congruent,miss,3,1,0.8279817588227161,1733211,28731,11:09:07.026807,hand
16,366,hand2,11,cue,black,-1,-1,-1,4,4,-1,0.37576692888251273,-1,1,none,none,-1,-1,-1,1737844,28731,11:09:07.026807,hand
16,367,hand2,11,cue,black,-1,-1,-1,4,4,-1,0.35068723125368706,-1,1,none,none,-1,-1,-1,1740544,28731,11:09:07.026807,hand
16,368,hand2,11,cue,white,-1,-1,-1,3,3,-1,0.2785308296006406,-1,1,none,none,-1,-1,-1,1743327,28731,11:09:07.026807,hand
16,369,hand2,11,gabor,90,0.01393663831150216,3,3,-1,4,0.49721643887096434,-1,1,-1,incongruent,CR,c,3,3.1722006375821366,1746144,28731,11:09:07.026807,hand
16,370,hand2,11,gabor,90,0.01393663831150216,3,3,-1,3,0.5517867551789095,-1,1,-1,congruent,CR,3,4,1.8397399910445529,1753060,28731,11:09:07.026807,hand
16,371,hand2,11,gabor,90,0.01393663831150216,3,3,-1,4,0.6064634373942681,-1,1,-1,incongruent,CR,q,3,2.0384007790435135,1758793,28731,11:09:07.026807,hand
16,372,hand2,11,cue,white,-1,-1,-1,3,3,-1,0.4863022220106359,-1,1,none,none,-1,-1,-1,1764776,28731,11:09:07.026807,hand
16,373,hand2,11,cue,white,-1,-1,-1,3,3,-1,0.3951320511569065,-1,1,none,none,-1,-1,-1,1767593,28731,11:09:07.026807,hand
16,374,hand2,11,cue,white,-1,-1,-1,3,3,-1,0.2920273955551238,-1,1,none,none,-1,-1,-1,1770528,28731,11:09:07.026807,hand
16,375,hand2,11,gabor,90,0.01393663831150216,3,3,-1,3,0.46478213421323744,-1,1,-1,congruent,CR,4,4,1.3896421113749966,1773243,28731,11:09:07.026807,hand
16,376,hand2,11,gabor,90,0.01393663831150216,3,3,-1,3,0.6584091654385702,-1,1,-1,congruent,CR,q,2,4.8113978937253705,1778425,28731,11:09:07.026807,hand
16,377,hand2,11,cue,black,-1,-1,-1,4,4,-1,0.3380496563659108,-1,1,none,none,-1,-1,-1,1787343,28731,11:09:07.026807,hand
16,378,hand2,11,gabor,0,0.01393663831150216,3,4,-1,3,0.544840332106105,-1,0,-1,congruent,miss,4,1,1.708703342039371,1790009,28731,11:09:07.026807,hand
16,379,hand2,11,cue,black,-1,-1,-1,4,4,-1,0.3295104326916771,-1,1,none,none,-1,-1,-1,1795710,28731,11:09:07.026807,hand
16,380,hand2,11,cue,black,-1,-1,-1,4,4,-1,0.36536649389563536,-1,1,none,none,-1,-1,-1,1798576,28731,11:09:07.026807,hand
16,381,hand2,11,cue,black,-1,-1,-1,4,4,-1,0.2761324128787237,-1,1,none,none,-1,-1,-1,1801475,28731,11:09:07.026807,hand
16,382,hand2,11,cue,black,-1,-1,-1,4,4,-1,0.29612766673017177,-1,1,none,none,-1,-1,-1,1804175,28731,11:09:07.026807,hand
16,383,hand2,11,gabor,0,0.01393663831150216,3,4,-1,4,0.5888251290798507,-1,0,-1,incongruent,miss,c,1,0.951757494956837,1806809,28731,11:09:07.026807,hand
16,384,hand2,11,cue,white,-1,-1,-1,3,3,-1,0.1975667935639649,-1,1,none,none,-1,-1,-1,1811591,28731,11:09:07.026807,hand
16,385,hand2,11,gabor,0,0.01393663831150216,3,4,-1,4,0.4583617807729752,-1,0,-1,incongruent,miss,3,2,1.8822825124480005,1814224,28731,11:09:07.026807,hand
16,386,hand2,11,cue,white,-1,-1,-1,4,3,-1,0.24332064366353734,-1,0,none,none,-1,-1,-1,1820009,28731,11:09:07.026807,hand
16,387,hand2,11,gabor,0,0.01393663831150216,3,4,-1,3,0.5039962092268979,-1,0,-1,congruent,miss,q,1,2.3887531688960735,1822575,28731,11:09:07.026807,hand
16,388,hand2,11,cue,black,-1,-1,-1,4,4,-1,0.25553505889365624,-1,1,none,none,-1,-1,-1,1828908,28731,11:09:07.026807,hand
16,389,hand2,11,gabor,90,0.01393663831150216,4,3,-1,4,0.5783490475841973,-1,0,-1,congruent,FA,4,1,1.0163653734052787,1831691,28731,11:09:07.026807,hand
16,390,hand2,11,cue,white,-1,-1,-1,4,3,-1,0.41624126705210074,-1,0,none,none,-1,-1,-1,1836725,28731,11:09:07.026807,hand
16,391,hand2,11,cue,black,-1,-1,-1,4,4,-1,0.33780428520185524,-1,1,none,none,-1,-1,-1,1842307,28731,11:09:07.026807,hand
16,392,hand2,11,cue,white,-1,-1,-1,3,3,-1,0.2387146544569987,-1,1,none,none,-1,-1,-1,1844973,28731,11:09:07.026807,hand
16,393,hand2,11,cue,white,-1,-1,-1,3,3,-1,0.17644068200024776,-1,1,none,none,-1,-1,-1,1847741,28731,11:09:07.026807,hand
16,394,hand2,11,gabor,0,0.01393663831150216,3,4,-1,4,0.49739576333377045,-1,0,-1,incongruent,miss,c,1,2.643388917516859,1850441,28731,11:09:07.026807,hand
16,395,hand2,11,cue,white,-1,-1,-1,3,3,-1,0.1851914855051291,-1,1,none,none,-1,-1,-1,1856924,28731,11:09:07.026807,hand
16,396,hand2,11,cue,black,-1,-1,-1,4,4,-1,0.318736373068532,-1,1,none,none,-1,-1,-1,1859641,28731,11:09:07.026807,hand
