subject_id,trial,effector_order,block,condition,stim1,gabor.contrast,pressed_gabor,expected_gabor,pressed_cue,expected_cue,rt_gabor,rt_cue,accuracy_gabor,accuracy_cue,congruency,SDT,pressed_conf,conf,rt_conf,trial_start_time_rel2bloc,bloc_start_time_rel2exp,exp_start_date,effector
2,1,hand2,1,gabor,90,0.018572166246627376,4,4,-1,4,0.16338997134971578,-1,1,-1,congruent,CR,c,4,1.951360859903616,2832,20775,11:31:25.026798,hand
2,2,hand2,1,cue,yellow,-1,-1,-1,4,3,-1,0.2712212085170904,-1,0,none,none,-1,-1,-1,8331,20775,11:31:25.026798,hand
2,3,hand2,1,cue,yellow,-1,-1,-1,3,3,-1,0.2067948724343296,-1,1,none,none,-1,-1,-1,14798,20775,11:31:25.026798,hand
2,4,hand2,1,cue,yellow,-1,-1,-1,3,3,-1,0.17565746703621699,-1,1,none,none,-1,-1,-1,17349,20775,11:31:25.026798,hand
2,5,hand2,1,gabor,0,0.018572166246627376,3,3,-1,3,0.16147537112192367,-1,1,-1,congruent,hit,q,3,1.4154306180134881,20066,20775,11:31:25.026798,hand
2,6,hand2,1,gabor,0,0.018572166246627376,3,3,-1,3,0.15926087061689032,-1,1,-1,congruent,hit,3,4,2.047179190222778,24981,20775,11:31:25.026798,hand
2,7,hand2,1,cue,blue,-1,-1,-1,4,4,-1,0.3229603421241336,-1,1,none,none,-1,-1,-1,30531,20775,11:31:25.026798,hand
2,8,hand2,1,gabor,0,0.018572166246627376,3,3,-1,3,0.15754748389099404,-1,1,-1,congruent,hit,3,4,0.9276330265083743,33399,20775,11:31:25.026798,hand
2,9,hand2,1,cue,yellow,-1,-1,-1,3,3,-1,0.268448762940352,-1,1,none,none,-1,-1,-1,37814,20775,11:31:25.026798,hand
2,10,hand2,1,cue,blue,-1,-1,-1,4,4,-1,0.24528463454589655,-1,1,none,none,-1,-1,-1,40514,20775,11:31:25.026798,hand
2,11,hand2,1,cue,yellow,-1,-1,-1,3,3,-1,0.18123998972441768,-1,1,none,none,-1,-1,-1,43298,20775,11:31:25.026798,hand
2,12,hand2,1,cue,blue,-1,-1,-1,4,4,-1,0.5438712632940224,-1,1,none,none,-1,-1,-1,48648,20775,11:31:25.026798,hand
2,13,hand2,1,cue,blue,-1,-1,-1,4,4,-1,0.24174266252248344,-1,1,none,none,-1,-1,-1,51531,20775,11:31:25.026798,hand
2,14,hand2,1,cue,blue,-1,-1,-1,4,4,-1,0.1933922868420268,-1,1,none,none,-1,-1,-1,54214,20775,11:31:25.026798,hand
2,15,hand2,1,cue,blue,-1,-1,-1,3,4,-1,0.13632521938598074,-1,0,none,none,-1,-1,-1,56847,20775,11:31:25.026798,hand
2,16,hand2,1,cue,yellow,-1,-1,-1,3,3,-1,0.1550657227035117,-1,1,none,none,-1,-1,-1,63081,20775,11:31:25.026798,hand
2,17,hand2,1,cue,yellow,-1,-1,-1,3,3,-1,0.2248603121342967,-1,1,none,none,-1,-1,-1,65765,20775,11:31:25.026798,hand
2,18,hand2,1,cue,blue,-1,-1,-1,4,4,-1,0.17352245354504703,-1,1,none,none,-1,-1,-1,71163,20775,11:31:25.026798,hand
2,19,hand2,1,cue,blue,-1,-1,-1,4,4,-1,0.25740698003482976,-1,1,none,none,-1,-1,-1,73680,20775,11:31:25.026798,hand
2,20,hand2,1,cue,yellow,-1,-1,-1,3,3,-1,0.4351702769254189,-1,1,none,none,-1,-1,-1,79947,20775,11:31:25.026798,hand
2,21,hand2,1,cue,yellow,-1,-1,-1,3,3,-1,0.2148749001125907,-1,1,none,none,-1,-1,-1,82914,20775,11:31:25.026798,hand
2,22,hand2,1,gabor,90,0.018572166246627376,4,4,-1,3,0.023738201266496617,-1,1,-1,incongruent,CR,3,1,2.2395815373556616,85563,20775,11:31:25.026798,hand
2,23,hand2,1,cue,blue,-1,-1,-1,4,4,-1,0.19626073122708476,-1,1,none,none,-1,-1,-1,91263,20775,11:31:25.026798,hand
2,24,hand2,1,gabor,0,0.018572166246627376,4,3,-1,4,0.10123112711426074,-1,0,-1,congruent,miss,q,1,1.9272958786941672,93997,20775,11:31:25.026798,hand
2,25,hand2,1,cue,blue,-1,-1,-1,3,4,-1,0.6819551808448523,-1,0,none,none,-1,-1,-1,99246,20775,11:31:25.026798,hand
2,26,hand2,1,gabor,90,0.018572166246627376,3,4,-1,3,0.19178488279885642,-1,0,-1,congruent,FA,4,1,1.915678486935576,102262,20775,11:31:25.026798,hand
2,27,hand2,1,cue,blue,-1,-1,-1,4,4,-1,0.3354609229172638,-1,1,none,none,-1,-1,-1,107712,20775,11:31:25.026798,hand
2,28,hand2,1,gabor,90,0.018572166246627376,3,4,-1,4,0.11127490641138138,-1,0,-1,incongruent,FA,4,1,1.9213919519979754,110378,20775,11:31:25.026798,hand
2,29,hand2,1,cue,yellow,-1,-1,-1,3,3,-1,0.302778704699449,-1,1,none,none,-1,-1,-1,119312,20775,11:31:25.026798,hand
2,30,hand2,1,cue,yellow,-1,-1,-1,3,3,-1,0.4616467481937434,-1,1,none,none,-1,-1,-1,122146,20775,11:31:25.026798,hand
2,31,hand2,1,cue,yellow,-1,-1,-1,3,3,-1,0.4932791234459728,-1,1,none,none,-1,-1,-1,128711,20775,11:31:25.026798,hand
2,32,hand2,1,gabor,90,0.018572166246627376,3,4,-1,4,0.3302036441918972,-1,0,-1,incongruent,FA,c,1,2.6488098643767444,131746,20775,11:31:25.026798,hand
2,33,hand2,1,cue,blue,-1,-1,-1,4,4,-1,0.21873597217381757,-1,1,none,none,-1,-1,-1,138162,20775,11:31:25.026798,hand
2,34,hand2,1,gabor,0,0.018572166246627376,3,3,-1,4,0.03146725730221078,-1,1,-1,incongruent,hit,c,4,1.7024889418971725,140711,20775,11:31:25.026798,hand
2,35,hand2,1,gabor,0,0.018572166246627376,3,3,-1,4,0.567139838391995,-1,1,-1,incongruent,hit,q,2,2.3600016742193475,149345,20775,11:31:25.026798,hand
2,36,hand2,1,gabor,90,0.018572166246627376,3,4,-1,3,0.21972283992090524,-1,0,-1,congruent,FA,4,1,1.541709754132171,155712,20775,11:31:25.026798,hand
2,37,hand2,2,cue,blue,-1,-1,-1,4,4,-1,0.2892202170414748,-1,1,none,none,-1,-1,-1,163760,20775,11:31:25.026798,hand
2,38,hand2,2,cue,blue,-1,-1,-1,4,4,-1,0.37414997855375987,-1,1,none,none,-1,-1,-1,166595,20775,11:31:25.026798,hand
2,39,hand2,2,gabor,0,0.018572166246627376,3,3,-1,3,0.1977921042134767,-1,1,-1,congruent,hit,4,2,1.8808604872365322,169411,20775,11:31:25.026798,hand
2,40,hand2,2,cue,yellow,-1,-1,-1,3,3,-1,0.18237968757330236,-1,1,none,none,-1,-1,-1,178493,20775,11:31:25.026798,hand
2,41,hand2,2,gabor,90,0.018572166246627376,3,4,-1,4,0.16230787278527714,-1,0,-1,incongruent,FA,c,1,1.8302353237986608,181211,20775,11:31:25.026798,hand
2,42,hand2,2,cue,blue,-1,-1,-1,4,4,-1,0.2047481778463407,-1,1,none,none,-1,-1,-1,190127,20775,11:31:25.026798,hand
2,43,hand2,2,gabor,90,0.018572166246627376,3,4,-1,3,0.4184380686729128,-1,0,-1,congruent,FA,4,1,2.7815335924788087,192759,20775,11:31:25.026798,hand
2,44,hand2,2,cue,yellow,-1,-1,-1,3,3,-1,0.2252339394954106,-1,1,none,none,-1,-1,-1,199209,20775,11:31:25.026798,hand
2,45,hand2,2,cue,yellow,-1,-1,-1,3,3,-1,0.3061974142528925,-1,1,none,none,-1,-1,-1,201960,20775,11:31:25.026798,hand
2,46,hand2,2,cue,blue,-1,-1,-1,4,4,-1,0.19686897967494588,-1,1,none,none,-1,-1,-1,207526,20775,11:31:25.026798,hand
2,47,hand2,2,cue,yellow,-1,-1,-1,3,3,-1,0.17554649241537845,-1,1,none,none,-1,-1,-1,210159,20775,11:31:25.026798,hand
2,48,hand2,2,cue,yellow,-1,-1,-1,3,3,-1,0.11241383627020696,-1,1,none,none,-1,-1,-1,212659,20775,11:31:25.026798,hand
2,49,hand2,2,cue,yellow,-1,-1,-1,4,3,-1,0.019288848509859235,-1,0,none,none,-1,-1,-1,215209,20775,11:31:25.026798,hand
2,50,hand2,2,gabor,90,0.018572166246627376,3,4,-1,4,0.11530224840680603,-1,0,-1,incongruent,FA,c,1,1.6041070594073972,217759,20775,11:31:25.026798,hand
2,51,hand2,2,cue,yellow,-1,-1,-1,3,3,-1,0.13086672715871828,-1,1,none,none,-1,-1,-1,222910,20775,11:31:25.026798,hand
2,52,hand2,2,cue,blue,-1,-1,-1,4,4,-1,0.15873479714900895,-1,1,none,none,-1,-1,-1,225476,20775,11:31:25.026798,hand
2,53,hand2,2,gabor,0,0.018572166246627376,3,3,-1,4,0.01041318271018099,-1,1,-1,incongruent,hit,q,1,2.599479148867431,230791,20775,11:31:25.026798,hand
2,54,hand2,2,cue,yellow,-1,-1,-1,3,3,-1,0.13520433730263903,-1,1,none,none,-1,-1,-1,236742,20775,11:31:25.026798,hand
2,55,hand2,2,cue,yellow,-1,-1,-1,3,3,-1,0.3857462505748117,-1,1,none,none,-1,-1,-1,242041,20775,11:31:25.026798,hand
2,56,hand2,2,cue,yellow,-1,-1,-1,3,3,-1,0.1886011783280992,-1,1,none,none,-1,-1,-1,244959,20775,11:31:25.026798,hand
2,57,hand2,2,cue,yellow,-1,-1,-1,3,3,-1,0.18256438928074203,-1,1,none,none,-1,-1,-1,247474,20775,11:31:25.026798,hand
2,58,hand2,2,cue,blue,-1,-1,-1,4,4,-1,0.29610563555252156,-1,1,none,none,-1,-1,-1,253657,20775,11:31:25.026798,hand
2,59,hand2,2,cue,blue,-1,-1,-1,3,4,-1,0.10556604929206514,-1,0,none,none,-1,-1,-1,263723,20775,11:31:25.026798,hand
2,60,hand2,2,cue,blue,-1,-1,-1,4,4,-1,0.21047009080302814,-1,1,none,none,-1,-1,-1,266157,20775,11:31:25.026798,hand
2,61,hand2,2,gabor,90,0.018572166246627376,3,4,-1,3,0.15536101503766986,-1,0,-1,congruent,FA,q,1,1.5262454981357223,268891,20775,11:31:25.026798,hand
2,62,hand2,2,cue,blue,-1,-1,-1,4,4,-1,0.42978858374499396,-1,1,none,none,-1,-1,-1,277474,20775,11:31:25.026798,hand
2,63,hand2,2,cue,blue,-1,-1,-1,4,4,-1,0.24355972796274727,-1,1,none,none,-1,-1,-1,280340,20775,11:31:25.026798,hand
2,64,hand2,2,gabor,0,0.018572166246627376,3,3,-1,3,0.32725302482595,-1,1,-1,congruent,hit,q,4,1.176191604405176,286672,20775,11:31:25.026798,hand
2,65,hand2,2,cue,blue,-1,-1,-1,3,4,-1,0.44003434453406953,-1,0,none,none,-1,-1,-1,291624,20775,11:31:25.026798,hand
2,66,hand2,2,cue,blue,-1,-1,-1,4,4,-1,0.25189626445626345,-1,1,none,none,-1,-1,-1,294490,20775,11:31:25.026798,hand
2,67,hand2,2,cue,yellow,-1,-1,-1,3,3,-1,0.28460497834475973,-1,1,none,none,-1,-1,-1,297274,20775,11:31:25.026798,hand
2,68,hand2,2,gabor,0,0.018572166246627376,3,3,-1,3,0.10546313856957568,-1,1,-1,congruent,hit,c,1,1.5774424304754575,299889,20775,11:31:25.026798,hand
2,69,hand2,2,gabor,90,0.018572166246627376,3,4,-1,4,0.22521397174295998,-1,0,-1,incongruent,FA,q,1,1.8842177575525056,304905,20775,11:31:25.026798,hand
2,70,hand2,2,gabor,90,0.018572166246627376,4,4,-1,3,0.35385659851635864,-1,1,-1,incongruent,CR,3,4,1.586813450124282,310256,20775,11:31:25.026798,hand
2,71,hand2,2,gabor,0,0.018572166246627376,3,3,-1,4,0.23767423303706892,-1,1,-1,incongruent,hit,q,4,1.0865206537600898,315640,20775,11:31:25.026798,hand
2,72,hand2,2,gabor,0,0.018572166246627376,4,3,-1,4,0.12431653648582142,-1,0,-1,congruent,miss,4,1,1.8573277234190755,320205,20775,11:31:25.026798,hand
2,73,hand2,3,cue,yellow,-1,-1,-1,3,3,-1,0.19454312055313494,-1,1,none,none,-1,-1,-1,333639,20775,11:31:25.026798,hand
2,74,hand2,3,cue,yellow,-1,-1,-1,3,3,-1,0.2484195716224349,-1,1,none,none,-1,-1,-1,336204,20775,11:31:25.026798,hand
2,75,hand2,3,gabor,0,0.018572166246627376,4,3,-1,4,0.1830873907874775,-1,0,-1,congruent,miss,3,1,0.9262951871187397,338788,20775,11:31:25.026798,hand
2,76,hand2,3,cue,blue,-1,-1,-1,4,4,-1,0.27500778550347604,-1,1,none,none,-1,-1,-1,343138,20775,11:31:25.026798,hand
2,77,hand2,3,gabor,90,0.018572166246627376,3,4,-1,3,0.18680523262628412,-1,0,-1,congruent,FA,q,1,2.0658505743995192,345838,20775,11:31:25.026798,hand
2,78,hand2,3,gabor,0,0.018572166246627376,3,3,-1,3,0.13247374720594962,-1,1,-1,congruent,hit,c,3,1.9394516317679518,351437,20775,11:31:25.026798,hand
2,79,hand2,3,cue,blue,-1,-1,-1,4,4,-1,0.7372232306361184,-1,1,none,none,-1,-1,-1,356955,20775,11:31:25.026798,hand
2,80,hand2,3,gabor,0,0.018572166246627376,3,3,-1,4,0.222097082442815,-1,1,-1,incongruent,hit,c,2,1.9849715785921944,360021,20775,11:31:25.026798,hand
2,81,hand2,3,cue,yellow,-1,-1,-1,3,3,-1,0.5267400839948095,-1,1,none,none,-1,-1,-1,365571,20775,11:31:25.026798,hand
2,82,hand2,3,cue,yellow,-1,-1,-1,3,3,-1,0.16163088919074653,-1,1,none,none,-1,-1,-1,368520,20775,11:31:25.026798,hand
2,83,hand2,3,cue,blue,-1,-1,-1,4,4,-1,0.26537526510037424,-1,1,none,none,-1,-1,-1,371222,20775,11:31:25.026798,hand
2,84,hand2,3,cue,yellow,-1,-1,-1,3,3,-1,0.6328433426169795,-1,1,none,none,-1,-1,-1,381253,20775,11:31:25.026798,hand
2,85,hand2,3,cue,yellow,-1,-1,-1,3,3,-1,0.4316851361973022,-1,1,none,none,-1,-1,-1,384320,20775,11:31:25.026798,hand
2,86,hand2,3,cue,yellow,-1,-1,-1,3,3,-1,0.3395443282170163,-1,1,none,none,-1,-1,-1,387186,20775,11:31:25.026798,hand
2,87,hand2,3,cue,blue,-1,-1,-1,4,4,-1,0.25840997558225354,-1,1,none,none,-1,-1,-1,389853,20775,11:31:25.026798,hand
2,88,hand2,3,cue,yellow,-1,-1,-1,3,3,-1,0.0832540063183842,-1,1,none,none,-1,-1,-1,392536,20775,11:31:25.026798,hand
2,89,hand2,3,gabor,90,0.018572166246627376,4,4,-1,3,0.003091161619522609,-1,1,-1,incongruent,CR,c,3,4.497978841095573,395053,20775,11:31:25.026798,hand
2,90,hand2,3,gabor,0,0.018572166246627376,3,3,-1,4,0.11453771389915346,-1,1,-1,incongruent,hit,3,2,1.6435491296942928,402802,20775,11:31:25.026798,hand
2,91,hand2,3,cue,blue,-1,-1,-1,4,4,-1,0.22423401591004222,-1,1,none,none,-1,-1,-1,407987,20775,11:31:25.026798,hand
2,92,hand2,3,gabor,90,0.018572166246627376,4,4,-1,3,0.218254058157072,-1,1,-1,incongruent,CR,4,4,1.486187499495827,410736,20775,11:31:25.026798,hand
2,93,hand2,3,cue,yellow,-1,-1,-1,3,3,-1,0.2818809161663012,-1,1,none,none,-1,-1,-1,415887,20775,11:31:25.026798,hand
2,94,hand2,3,cue,blue,-1,-1,-1,4,4,-1,0.41061838976202125,-1,1,none,none,-1,-1,-1,418602,20775,11:31:25.026798,hand
2,95,hand2,3,cue,yellow,-1,-1,-1,3,3,-1,0.22361539959092624,-1,1,none,none,-1,-1,-1,421335,20775,11:31:25.026798,hand
2,96,hand2,3,cue,blue,-1,-1,-1,4,4,-1,0.10240192857781949,-1,1,none,none,-1,-1,-1,423885,20775,11:31:25.026798,hand
2,97,hand2,3,cue,yellow,-1,-1,-1,3,3,-1,0.19325174458572292,-1,1,none,none,-1,-1,-1,426318,20775,11:31:25.026798,hand
2,98,hand2,3,cue,blue,-1,-1,-1,4,4,-1,0.16111940754126408,-1,1,none,none,-1,-1,-1,428936,20775,11:31:25.026798,hand
2,99,hand2,3,cue,blue,-1,-1,-1,4,4,-1,0.6006415024357921,-1,1,none,none,-1,-1,-1,435085,20775,11:31:25.026798,hand
2,100,hand2,3,gabor,90,0.018572166246627376,4,4,-1,4,0.44355558081406343,-1,1,-1,congruent,CR,q,4,1.7955440425248526,438018,20775,11:31:25.026798,hand
2,101,hand2,3,gabor,90,0.018572166246627376,3,4,-1,4,0.09822252446883795,-1,0,-1,incongruent,FA,c,1,1.3608767993537185,446418,20775,11:31:25.026798,hand
2,102,hand2,3,cue,yellow,-1,-1,-1,3,3,-1,0.41685639231127425,-1,1,none,none,-1,-1,-1,451118,20775,11:31:25.026798,hand
2,103,hand2,3,cue,blue,-1,-1,-1,4,4,-1,0.46570711378080887,-1,1,none,none,-1,-1,-1,454069,20775,11:31:25.026798,hand
2,104,hand2,3,cue,blue,-1,-1,-1,4,4,-1,0.44550320463258686,-1,1,none,none,-1,-1,-1,456868,20775,11:31:25.026798,hand
2,105,hand2,3,gabor,0,0.018572166246627376,3,3,-1,3,0.10837535841164936,-1,1,-1,congruent,hit,q,2,1.6913066167371653,459751,20775,11:31:25.026798,hand
2,106,hand2,3,gabor,90,0.018572166246627376,3,4,-1,4,0.31508306392879604,-1,0,-1,incongruent,FA,3,1,3.5007754783719065,464989,20775,11:31:25.026798,hand
2,107,hand2,3,gabor,0,0.018572166246627376,4,3,-1,3,0.4366740022551312,-1,0,-1,incongruent,miss,c,1,1.2905258008322562,472251,20775,11:31:25.026798,hand
2,108,hand2,3,cue,blue,-1,-1,-1,4,4,-1,0.3243584687652401,-1,1,none,none,-1,-1,-1,477217,20775,11:31:25.026798,hand
2,109,hand2,4,cue,blue,-1,-1,-1,4,4,-1,0.3336776490577904,-1,1,none,none,-1,-1,-1,489566,20775,11:31:25.026798,hand
2,110,hand2,4,gabor,90,0.018572166246627376,3,4,-1,3,0.1164288904183195,-1,0,-1,congruent,FA,4,1,1.6054053472871601,492283,20775,11:31:25.026798,hand
2,111,hand2,4,cue,blue,-1,-1,-1,4,4,-1,0.22523509148140874,-1,1,none,none,-1,-1,-1,497349,20775,11:31:25.026798,hand
2,112,hand2,4,cue,blue,-1,-1,-1,4,4,-1,0.1640899946587524,-1,1,none,none,-1,-1,-1,499900,20775,11:31:25.026798,hand
2,113,hand2,4,gabor,90,0.018572166246627376,3,4,-1,3,0.03870787140294851,-1,0,-1,congruent,FA,c,1,1.4686865327876149,505433,20775,11:31:25.026798,hand
2,114,hand2,4,cue,blue,-1,-1,-1,4,4,-1,0.5343892690234497,-1,1,none,none,-1,-1,-1,510282,20775,11:31:25.026798,hand
2,115,hand2,4,cue,blue,-1,-1,-1,4,4,-1,0.09530416070356296,-1,1,none,none,-1,-1,-1,513149,20775,11:31:25.026798,hand
2,116,hand2,4,cue,yellow,-1,-1,-1,3,3,-1,0.2613091395860465,-1,1,none,none,-1,-1,-1,515582,20775,11:31:25.026798,hand
2,117,hand2,4,cue,yellow,-1,-1,-1,3,3,-1,0.4028213665696967,-1,1,none,none,-1,-1,-1,522033,20775,11:31:25.026798,hand
2,118,hand2,4,cue,blue,-1,-1,-1,3,4,-1,0.3696130748840005,-1,0,none,none,-1,-1,-1,524865,20775,11:31:25.026798,hand
2,119,hand2,4,gabor,90,0.018572166246627376,3,4,-1,4,0.05145344115408079,-1,0,-1,incongruent,FA,c,1,1.5394741338886888,527665,20775,11:31:25.026798,hand
2,120,hand2,4,cue,yellow,-1,-1,-1,3,3,-1,0.5211475774322025,-1,1,none,none,-1,-1,-1,532682,20775,11:31:25.026798,hand
2,121,hand2,4,cue,yellow,-1,-1,-1,3,3,-1,0.36885161233840336,-1,1,none,none,-1,-1,-1,538465,20775,11:31:25.026798,hand
2,122,hand2,4,gabor,0,0.018572166246627376,4,3,-1,4,0.2076323660367052,-1,0,-1,congruent,miss,q,1,1.9696206011903996,541165,20775,11:31:25.026798,hand
2,123,hand2,4,cue,blue,-1,-1,-1,4,4,-1,0.514275214758527,-1,1,none,none,-1,-1,-1,546782,20775,11:31:25.026798,hand
2,124,hand2,4,cue,blue,-1,-1,-1,4,4,-1,0.36125426666694693,-1,1,none,none,-1,-1,-1,549731,20775,11:31:25.026798,hand
2,125,hand2,4,cue,yellow,-1,-1,-1,3,3,-1,0.4360369541655018,-1,1,none,none,-1,-1,-1,552432,20775,11:31:25.026798,hand
2,126,hand2,4,gabor,0,0.018572166246627376,3,3,-1,3,0.17075461591048224,-1,1,-1,congruent,hit,q,3,2.494868863708689,555298,20775,11:31:25.026798,hand
2,127,hand2,4,cue,blue,-1,-1,-1,4,4,-1,0.468584774052033,-1,1,none,none,-1,-1,-1,561281,20775,11:31:25.026798,hand
2,128,hand2,4,gabor,0,0.018572166246627376,4,3,-1,4,0.09418404661118984,-1,0,-1,congruent,miss,q,3,1.1822794648178387,564181,20775,11:31:25.026798,hand
2,129,hand2,4,gabor,90,0.018572166246627376,3,4,-1,4,0.08823365649095649,-1,0,-1,incongruent,FA,4,1,1.4161947685261111,568698,20775,11:31:25.026798,hand
2,130,hand2,4,cue,yellow,-1,-1,-1,3,3,-1,0.4028267425028389,-1,1,none,none,-1,-1,-1,573547,20775,11:31:25.026798,hand
2,131,hand2,4,gabor,0,0.018572166246627376,3,3,-1,3,0.23271762257809314,-1,1,-1,congruent,hit,c,4,1.2206290686690409,576280,20775,11:31:25.026798,hand
2,132,hand2,4,cue,yellow,-1,-1,-1,3,3,-1,0.5725610830813821,-1,1,none,none,-1,-1,-1,580980,20775,11:31:25.026798,hand
2,133,hand2,4,cue,yellow,-1,-1,-1,3,3,-1,0.20025005769457493,-1,1,none,none,-1,-1,-1,583880,20775,11:31:25.026798,hand
2,134,hand2,4,cue,yellow,-1,-1,-1,3,3,-1,0.22977084316516994,-1,1,none,none,-1,-1,-1,593013,20775,11:31:25.026798,hand
2,135,hand2,4,gabor,90,0.018572166246627376,3,4,-1,4,0.5563687721250972,-1,0,-1,incongruent,FA,q,1,1.5725007958299102,595781,20775,11:31:25.026798,hand
2,136,hand2,4,cue,blue,-1,-1,-1,4,4,-1,0.4101802512013819,-1,1,none,none,-1,-1,-1,601146,20775,11:31:25.026798,hand
2,137,hand2,4,cue,yellow,-1,-1,-1,3,3,-1,0.3982260956245227,-1,1,none,none,-1,-1,-1,603880,20775,11:31:25.026798,hand
2,138,hand2,4,cue,yellow,-1,-1,-1,3,3,-1,0.3697052337402056,-1,1,none,none,-1,-1,-1,610379,20775,11:31:25.026798,hand
2,139,hand2,4,cue,blue,-1,-1,-1,4,4,-1,0.5416110673568255,-1,1,none,none,-1,-1,-1,613280,20775,11:31:25.026798,hand
2,140,hand2,4,gabor,0,0.018572166246627376,4,3,-1,4,0.19903778474690625,-1,0,-1,congruent,miss,3,1,1.9090034978125914,622746,20775,11:31:25.026798,hand
2,141,hand2,4,cue,blue,-1,-1,-1,4,4,-1,0.4447839815620682,-1,1,none,none,-1,-1,-1,628196,20775,11:31:25.026798,hand
2,142,hand2,4,gabor,0,0.018572166246627376,3,3,-1,3,0.0994735809363192,-1,1,-1,congruent,hit,3,4,1.077503293719019,630962,20775,11:31:25.026798,hand
2,143,hand2,4,gabor,90,0.018572166246627376,3,4,-1,3,0.28826982884129393,-1,0,-1,congruent,FA,c,1,1.3693408222643484,635563,20775,11:31:25.026798,hand
2,144,hand2,4,cue,yellow,-1,-1,-1,3,3,-1,0.5799326395563185,-1,1,none,none,-1,-1,-1,640562,20775,11:31:25.026798,hand
2,145,hand2,5,cue,yellow,-1,-1,-1,3,3,-1,0.22527041904231737,-1,1,none,none,-1,-1,-1,654610,20775,11:31:25.026798,hand
2,146,hand2,5,gabor,90,0.018572166246627376,3,4,-1,3,0.14714428505612887,-1,0,-1,congruent,FA,c,3,1.4930521822634546,657211,20775,11:31:25.026798,hand
2,147,hand2,5,cue,yellow,-1,-1,-1,3,3,-1,0.20871753656228975,-1,1,none,none,-1,-1,-1,662295,20775,11:31:25.026798,hand
2,148,hand2,5,cue,yellow,-1,-1,-1,3,3,-1,0.22160172859275917,-1,1,none,none,-1,-1,-1,665029,20775,11:31:25.026798,hand
2,149,hand2,5,cue,yellow,-1,-1,-1,3,3,-1,0.4004448200776096,-1,1,none,none,-1,-1,-1,667778,20775,11:31:25.026798,hand
2,150,hand2,5,cue,yellow,-1,-1,-1,3,3,-1,0.28135906664556387,-1,1,none,none,-1,-1,-1,670610,20775,11:31:25.026798,hand
2,151,hand2,5,gabor,0,0.018572166246627376,4,3,-1,4,0.1641518178903425,-1,0,-1,congruent,miss,4,1,1.7708950045680467,673327,20775,11:31:25.026798,hand
2,152,hand2,5,cue,yellow,-1,-1,-1,3,3,-1,0.6268077055556205,-1,1,none,none,-1,-1,-1,678610,20775,11:31:25.026798,hand
2,153,hand2,5,cue,blue,-1,-1,-1,4,4,-1,0.3716590014819303,-1,1,none,none,-1,-1,-1,681560,20775,11:31:25.026798,hand
2,154,hand2,5,cue,blue,-1,-1,-1,4,4,-1,0.18327593244612217,-1,1,none,none,-1,-1,-1,687927,20775,11:31:25.026798,hand
2,155,hand2,5,gabor,0,0.018572166246627376,3,3,-1,4,0.006747564221768698,-1,1,-1,incongruent,hit,q,2,1.5597502341415748,696943,20775,11:31:25.026798,hand
2,156,hand2,5,cue,blue,-1,-1,-1,4,4,-1,0.49552779952682613,-1,1,none,none,-1,-1,-1,701944,20775,11:31:25.026798,hand
2,157,hand2,5,cue,yellow,-1,-1,-1,3,3,-1,0.3091998729742045,-1,1,none,none,-1,-1,-1,708543,20775,11:31:25.026798,hand
2,158,hand2,5,gabor,0,0.018572166246627376,3,3,-1,3,0.048771234456580714,-1,1,-1,congruent,hit,3,2,1.6978449035577796,714109,20775,11:31:25.026798,hand
2,159,hand2,5,cue,blue,-1,-1,-1,3,4,-1,0.7424674535241138,-1,0,none,none,-1,-1,-1,719092,20775,11:31:25.026798,hand
2,160,hand2,5,cue,blue,-1,-1,-1,4,4,-1,0.2184909832158155,-1,1,none,none,-1,-1,-1,722159,20775,11:31:25.026798,hand
2,161,hand2,5,cue,blue,-1,-1,-1,3,4,-1,0.2081357837860196,-1,0,none,none,-1,-1,-1,724708,20775,11:31:25.026798,hand
2,162,hand2,5,gabor,0,0.018572166246627376,3,3,-1,3,0.14212546737053344,-1,1,-1,congruent,hit,q,1,1.7749584421153486,727242,20775,11:31:25.026798,hand
2,163,hand2,5,cue,blue,-1,-1,-1,3,4,-1,0.5486470119985825,-1,0,none,none,-1,-1,-1,736158,20775,11:31:25.026798,hand
2,164,hand2,5,cue,blue,-1,-1,-1,4,4,-1,0.12241460810037097,-1,1,none,none,-1,-1,-1,739042,20775,11:31:25.026798,hand
2,165,hand2,5,cue,blue,-1,-1,-1,3,4,-1,0.15918944750410446,-1,0,none,none,-1,-1,-1,741491,20775,11:31:25.026798,hand
2,166,hand2,5,cue,yellow,-1,-1,-1,3,3,-1,0.17315804207009933,-1,1,none,none,-1,-1,-1,744075,20775,11:31:25.026798,hand
2,167,hand2,5,cue,blue,-1,-1,-1,4,4,-1,0.368604319408405,-1,1,none,none,-1,-1,-1,750241,20775,11:31:25.026798,hand
2,168,hand2,5,gabor,90,0.018572166246627376,4,4,-1,3,0.546332672733115,-1,1,-1,incongruent,CR,c,2,3.858429021744996,755974,20775,11:31:25.026798,hand
2,169,hand2,5,cue,yellow,-1,-1,-1,3,3,-1,0.4178309722101403,-1,1,none,none,-1,-1,-1,767275,20775,11:31:25.026798,hand
2,170,hand2,5,cue,yellow,-1,-1,-1,4,3,-1,0.450691748211284,-1,0,none,none,-1,-1,-1,770024,20775,11:31:25.026798,hand
2,171,hand2,5,cue,yellow,-1,-1,-1,3,3,-1,0.37643820614357537,-1,1,none,none,-1,-1,-1,772807,20775,11:31:25.026798,hand
2,172,hand2,5,gabor,90,0.018572166246627376,3,4,-1,4,0.18330166012583504,-1,0,-1,incongruent,FA,3,1,1.2403061363593224,775708,20775,11:31:25.026798,hand
2,173,hand2,5,gabor,0,0.018572166246627376,3,3,-1,4,0.0831806632286316,-1,1,-1,incongruent,hit,4,3,1.4539695315143035,780474,20775,11:31:25.026798,hand
2,174,hand2,5,gabor,90,0.018572166246627376,3,4,-1,4,0.18755479131959873,-1,0,-1,incongruent,FA,q,1,1.4174934404018131,788173,20775,11:31:25.026798,hand
2,175,hand2,5,cue,blue,-1,-1,-1,4,4,-1,0.6063088880691794,-1,1,none,none,-1,-1,-1,793023,20775,11:31:25.026798,hand
2,176,hand2,5,gabor,90,0.018572166246627376,3,4,-1,3,0.3009028879896505,-1,0,-1,congruent,FA,q,1,0.9438622010065956,799723,20775,11:31:25.026798,hand
2,177,hand2,5,cue,blue,-1,-1,-1,4,4,-1,0.4787134162943403,-1,1,none,none,-1,-1,-1,804290,20775,11:31:25.026798,hand
2,178,hand2,5,gabor,90,0.018572166246627376,3,4,-1,4,0.20852169899444561,-1,0,-1,incongruent,FA,c,1,1.724378206120491,807106,20775,11:31:25.026798,hand
2,179,hand2,5,cue,yellow,-1,-1,-1,3,3,-1,0.36428898098802165,-1,1,none,none,-1,-1,-1,812473,20775,11:31:25.026798,hand
2,180,hand2,5,gabor,0,0.018572166246627376,4,3,-1,3,0.035131339809595374,-1,0,-1,incongruent,miss,c,4,2.357060270740476,815273,20775,11:31:25.026798,hand
2,181,hand2,6,cue,blue,-1,-1,-1,4,4,-1,0.3982464473720029,-1,1,none,none,-1,-1,-1,829405,20775,11:31:25.026798,hand
2,182,hand2,6,cue,blue,-1,-1,-1,4,4,-1,0.4138619974892208,-1,1,none,none,-1,-1,-1,832172,20775,11:31:25.026798,hand
2,183,hand2,6,cue,blue,-1,-1,-1,4,4,-1,0.19104185202468216,-1,1,none,none,-1,-1,-1,835022,20775,11:31:25.026798,hand
2,184,hand2,6,gabor,90,0.018572166246627376,3,4,-1,3,0.1937313546322912,-1,0,-1,congruent,FA,4,1,1.263712565744754,837639,20775,11:31:25.026798,hand
2,185,hand2,6,cue,blue,-1,-1,-1,4,4,-1,0.42056770623185,-1,1,none,none,-1,-1,-1,842556,20775,11:31:25.026798,hand
2,186,hand2,6,gabor,90,0.018572166246627376,3,4,-1,3,0.16616164893639507,-1,0,-1,congruent,FA,q,1,1.311301094886403,845506,20775,11:31:25.026798,hand
2,187,hand2,6,gabor,0,0.018572166246627376,3,3,-1,4,0.002682206697500078,-1,1,-1,incongruent,hit,c,1,1.5907156096745894,855888,20775,11:31:25.026798,hand
2,188,hand2,6,cue,yellow,-1,-1,-1,3,3,-1,0.36843228954512597,-1,1,none,none,-1,-1,-1,860704,20775,11:31:25.026798,hand
2,189,hand2,6,cue,yellow,-1,-1,-1,3,3,-1,0.300238192242432,-1,1,none,none,-1,-1,-1,863404,20775,11:31:25.026798,hand
2,190,hand2,6,cue,yellow,-1,-1,-1,3,3,-1,0.40627578767998784,-1,1,none,none,-1,-1,-1,866239,20775,11:31:25.026798,hand
2,191,hand2,6,cue,yellow,-1,-1,-1,3,3,-1,0.19597388678812422,-1,1,none,none,-1,-1,-1,869172,20775,11:31:25.026798,hand
2,192,hand2,6,gabor,0,0.018572166246627376,4,3,-1,4,0.024795724136311037,-1,0,-1,congruent,miss,4,1,1.2928067325110533,871905,20775,11:31:25.026798,hand
2,193,hand2,6,cue,yellow,-1,-1,-1,4,3,-1,0.6575158042842304,-1,0,none,none,-1,-1,-1,876454,20775,11:31:25.026798,hand
2,194,hand2,6,cue,blue,-1,-1,-1,4,4,-1,0.04146841312831384,-1,1,none,none,-1,-1,-1,879437,20775,11:31:25.026798,hand
2,195,hand2,6,cue,yellow,-1,-1,-1,3,3,-1,0.22811620770971786,-1,1,none,none,-1,-1,-1,884737,20775,11:31:25.026798,hand
2,196,hand2,6,cue,blue,-1,-1,-1,4,4,-1,0.4547286900879044,-1,1,none,none,-1,-1,-1,891170,20775,11:31:25.026798,hand
2,197,hand2,6,cue,blue,-1,-1,-1,4,4,-1,0.4676309298947672,-1,1,none,none,-1,-1,-1,893953,20775,11:31:25.026798,hand
2,198,hand2,6,cue,yellow,-1,-1,-1,3,3,-1,0.3273693753817497,-1,1,none,none,-1,-1,-1,896853,20775,11:31:25.026798,hand
2,199,hand2,6,cue,yellow,-1,-1,-1,3,3,-1,0.33917876475697994,-1,1,none,none,-1,-1,-1,899704,20775,11:31:25.026798,hand
2,200,hand2,6,cue,blue,-1,-1,-1,4,4,-1,0.3560092757888924,-1,1,none,none,-1,-1,-1,902370,20775,11:31:25.026798,hand
2,201,hand2,6,gabor,90,0.018572166246627376,3,4,-1,3,0.11187432296810584,-1,0,-1,congruent,FA,3,1,0.9508758739248151,905053,20775,11:31:25.026798,hand
2,202,hand2,6,cue,blue,-1,-1,-1,3,4,-1,0.3946537879792231,-1,0,none,none,-1,-1,-1,909554,20775,11:31:25.026798,hand
2,203,hand2,6,gabor,0,0.018572166246627376,3,3,-1,3,0.036452667403864325,-1,1,-1,congruent,hit,3,4,0.8384451418651224,912286,20775,11:31:25.026798,hand
2,204,hand2,6,gabor,90,0.018572166246627376,3,4,-1,4,0.14023966678360011,-1,0,-1,incongruent,FA,4,1,1.584207274482651,916402,20775,11:31:25.026798,hand
2,205,hand2,6,cue,blue,-1,-1,-1,4,4,-1,0.2938588794477255,-1,1,none,none,-1,-1,-1,925035,20775,11:31:25.026798,hand
2,206,hand2,6,cue,yellow,-1,-1,-1,4,3,-1,0.2554942997830949,-1,0,none,none,-1,-1,-1,927752,20775,11:31:25.026798,hand
2,207,hand2,6,cue,blue,-1,-1,-1,4,4,-1,0.3733666282805643,-1,1,none,none,-1,-1,-1,934102,20775,11:31:25.026798,hand
2,208,hand2,6,gabor,90,0.018572166246627376,3,4,-1,4,0.0859623246915362,-1,0,-1,incongruent,FA,3,1,1.117812425241027,940668,20775,11:31:25.026798,hand
2,209,hand2,6,cue,blue,-1,-1,-1,4,4,-1,0.21112403468396224,-1,1,none,none,-1,-1,-1,950884,20775,11:31:25.026798,hand
2,210,hand2,6,cue,yellow,-1,-1,-1,3,3,-1,0.15823982729398267,-1,1,none,none,-1,-1,-1,953419,20775,11:31:25.026798,hand
2,211,hand2,6,cue,yellow,-1,-1,-1,3,3,-1,0.4462400914826503,-1,1,none,none,-1,-1,-1,970768,20775,11:31:25.026798,hand
2,212,hand2,6,gabor,0,0.018572166246627376,3,3,-1,3,0.1638066061777863,-1,1,-1,congruent,hit,3,4,0.6938010497660798,976384,20775,11:31:25.026798,hand
2,213,hand2,6,gabor,0,0.018572166246627376,4,3,-1,4,0.25159367621290585,-1,0,-1,congruent,miss,c,1,1.2974073793893695,980467,20775,11:31:25.026798,hand
2,214,hand2,6,gabor,90,0.018572166246627376,3,4,-1,4,0.2763122173073498,-1,0,-1,incongruent,FA,c,2,1.185230084183786,985250,20775,11:31:25.026798,hand
2,215,hand2,6,gabor,0,0.018572166246627376,3,3,-1,3,0.24806476002777345,-1,1,-1,congruent,hit,q,4,1.4311513828242823,990152,20775,11:31:25.026798,hand
2,216,hand2,6,cue,yellow,-1,-1,-1,4,3,-1,0.44873951644967747,-1,0,none,none,-1,-1,-1,995268,20775,11:31:25.026798,hand
2,217,hand2,7,cue,yellow,-1,-1,-1,3,3,-1,0.6628072585845075,-1,1,none,none,-1,-1,-1,1011583,20775,11:31:25.026798,hand
2,218,hand2,7,gabor,90,0.018572166246627376,3,4,-1,3,0.14056452675140463,-1,0,-1,congruent,FA,3,1,0.7516111479963001,1014733,20775,11:31:25.026798,hand
2,219,hand2,7,gabor,0,0.018572166246627376,4,3,-1,3,0.09833273110143637,-1,0,-1,incongruent,miss,4,1,0.749302952654034,1018966,20775,11:31:25.026798,hand
2,220,hand2,7,cue,blue,-1,-1,-1,4,4,-1,0.14706556603414356,-1,1,none,none,-1,-1,-1,1025899,20775,11:31:25.026798,hand
2,221,hand2,7,gabor,90,0.018572166246627376,3,4,-1,3,0.05380387597142544,-1,0,-1,congruent,FA,4,4,0.7657894039584789,1028483,20775,11:31:25.026798,hand
2,222,hand2,7,gabor,90,0.018572166246627376,3,4,-1,4,0.08355352259877691,-1,0,-1,incongruent,FA,3,1,0.8255736216779042,1032750,20775,11:31:25.026798,hand
2,223,hand2,7,cue,blue,-1,-1,-1,3,4,-1,0.47921299409154017,-1,0,none,none,-1,-1,-1,1040666,20775,11:31:25.026798,hand
2,224,hand2,7,gabor,90,0.018572166246627376,3,4,-1,4,0.4828194773135692,-1,0,-1,incongruent,FA,4,1,1.6158669133965304,1043583,20775,11:31:25.026798,hand
2,225,hand2,7,cue,yellow,-1,-1,-1,3,3,-1,0.27160789171648503,-1,1,none,none,-1,-1,-1,1049031,20775,11:31:25.026798,hand
2,226,hand2,7,cue,yellow,-1,-1,-1,3,3,-1,0.34535340809179615,-1,1,none,none,-1,-1,-1,1051732,20775,11:31:25.026798,hand
2,227,hand2,7,gabor,90,0.018572166246627376,4,4,-1,3,0.16427162440413667,-1,1,-1,incongruent,CR,4,3,1.3573463471875584,1054415,20775,11:31:25.026798,hand
2,228,hand2,7,cue,blue,-1,-1,-1,4,4,-1,0.3351544947217917,-1,1,none,none,-1,-1,-1,1059366,20775,11:31:25.026798,hand
2,229,hand2,7,cue,blue,-1,-1,-1,4,4,-1,0.17074386404419784,-1,1,none,none,-1,-1,-1,1065064,20775,11:31:25.026798,hand
2,230,hand2,7,gabor,90,0.018572166246627376,3,4,-1,4,0.15537599085200782,-1,0,-1,incongruent,FA,3,1,0.9623861310137727,1070597,20775,11:31:25.026798,hand
2,231,hand2,7,gabor,0,0.018572166246627376,3,3,-1,4,0.10725754829036305,-1,1,-1,incongruent,hit,3,3,0.789198905305966,1075047,20775,11:31:25.026798,hand
2,232,hand2,7,cue,blue,-1,-1,-1,4,4,-1,0.6098017087015251,-1,1,none,none,-1,-1,-1,1082014,20775,11:31:25.026798,hand
2,233,hand2,7,gabor,0,0.018572166246627376,3,3,-1,4,0.07033295074597845,-1,1,-1,incongruent,hit,3,4,0.7394150754225848,1087780,20775,11:31:25.026798,hand
2,234,hand2,7,gabor,0,0.018572166246627376,3,3,-1,3,0.3202558637030961,-1,1,-1,congruent,hit,c,4,1.707248178806367,1091830,20775,11:31:25.026798,hand
2,235,hand2,7,cue,yellow,-1,-1,-1,3,3,-1,0.4979638652812355,-1,1,none,none,-1,-1,-1,1097298,20775,11:31:25.026798,hand
2,236,hand2,7,cue,blue,-1,-1,-1,4,4,-1,0.412778746938784,-1,1,none,none,-1,-1,-1,1100331,20775,11:31:25.026798,hand
2,237,hand2,7,cue,blue,-1,-1,-1,4,4,-1,0.1855918076917078,-1,1,none,none,-1,-1,-1,1103080,20775,11:31:25.026798,hand
2,238,hand2,7,gabor,0,0.018572166246627376,3,3,-1,3,0.010402814838016639,-1,1,-1,congruent,hit,3,2,1.3103226750336034,1105797,20775,11:31:25.026798,hand
2,239,hand2,7,cue,blue,-1,-1,-1,4,4,-1,0.3571078861486967,-1,1,none,none,-1,-1,-1,1110548,20775,11:31:25.026798,hand
2,240,hand2,7,cue,yellow,-1,-1,-1,3,3,-1,0.23298449926369358,-1,1,none,none,-1,-1,-1,1113431,20775,11:31:25.026798,hand
2,241,hand2,7,cue,yellow,-1,-1,-1,4,3,-1,0.25379857683674345,-1,0,none,none,-1,-1,-1,1115996,20775,11:31:25.026798,hand
2,242,hand2,7,cue,yellow,-1,-1,-1,4,3,-1,0.2916497548767438,-1,0,none,none,-1,-1,-1,1118781,20775,11:31:25.026798,hand
2,243,hand2,7,cue,blue,-1,-1,-1,4,4,-1,0.2694771021724591,-1,1,none,none,-1,-1,-1,1121597,20775,11:31:25.026798,hand
2,244,hand2,7,cue,yellow,-1,-1,-1,3,3,-1,0.22638285323046148,-1,1,none,none,-1,-1,-1,1124296,20775,11:31:25.026798,hand
2,245,hand2,7,cue,blue,-1,-1,-1,4,4,-1,0.22525966717603296,-1,1,none,none,-1,-1,-1,1127046,20775,11:31:25.026798,hand
2,246,hand2,7,cue,yellow,-1,-1,-1,3,3,-1,0.24212857773181895,-1,1,none,none,-1,-1,-1,1129696,20775,11:31:25.026798,hand
2,247,hand2,7,gabor,0,0.018572166246627376,3,3,-1,4,0.23264735145039594,-1,1,-1,incongruent,hit,3,3,0.7056937661063785,1135096,20775,11:31:25.026798,hand
2,248,hand2,7,cue,blue,-1,-1,-1,4,4,-1,0.6365058891424269,-1,1,none,none,-1,-1,-1,1139480,20775,11:31:25.026798,hand
2,249,hand2,7,cue,yellow,-1,-1,-1,3,3,-1,0.7091789068344951,-1,1,none,none,-1,-1,-1,1145278,20775,11:31:25.026798,hand
2,250,hand2,7,cue,yellow,-1,-1,-1,3,3,-1,0.35148657994250243,-1,1,none,none,-1,-1,-1,1154078,20775,11:31:25.026798,hand
2,251,hand2,7,cue,blue,-1,-1,-1,4,4,-1,0.04251672011196206,-1,1,none,none,-1,-1,-1,1156962,20775,11:31:25.026798,hand
2,252,hand2,7,cue,yellow,-1,-1,-1,4,3,-1,0.28037411887453345,-1,0,none,none,-1,-1,-1,1159529,20775,11:31:25.026798,hand
2,253,hand2,8,cue,yellow,-1,-1,-1,3,3,-1,0.2772199820365131,-1,1,none,none,-1,-1,-1,1179643,20775,11:31:25.026798,hand
2,254,hand2,8,gabor,90,0.018572166246627376,3,4,-1,3,0.06314148803539865,-1,0,-1,congruent,FA,q,1,3.797025112135998,1182328,20775,11:31:25.026798,hand
2,255,hand2,8,gabor,0,0.018572166246627376,4,3,-1,3,0.13752789245336317,-1,0,-1,incongruent,miss,c,1,1.3095761883023442,1189628,20775,11:31:25.026798,hand
2,256,hand2,8,cue,yellow,-1,-1,-1,3,3,-1,0.3843304601532509,-1,1,none,none,-1,-1,-1,1194511,20775,11:31:25.026798,hand
2,257,hand2,8,cue,blue,-1,-1,-1,4,4,-1,0.1632824526850527,-1,1,none,none,-1,-1,-1,1197326,20775,11:31:25.026798,hand
2,258,hand2,8,cue,yellow,-1,-1,-1,3,3,-1,0.21312272986779135,-1,1,none,none,-1,-1,-1,1199828,20775,11:31:25.026798,hand
2,259,hand2,8,cue,yellow,-1,-1,-1,3,3,-1,0.330630262894374,-1,1,none,none,-1,-1,-1,1205310,20775,11:31:25.026798,hand
2,260,hand2,8,cue,yellow,-1,-1,-1,4,3,-1,0.23859582159366255,-1,0,none,none,-1,-1,-1,1208178,20775,11:31:25.026798,hand
2,261,hand2,8,cue,blue,-1,-1,-1,4,4,-1,0.17845026436225453,-1,1,none,none,-1,-1,-1,1210843,20775,11:31:25.026798,hand
2,262,hand2,8,cue,yellow,-1,-1,-1,3,3,-1,0.3911590473690012,-1,1,none,none,-1,-1,-1,1217026,20775,11:31:25.026798,hand
2,263,hand2,8,cue,yellow,-1,-1,-1,3,3,-1,0.19573580974429206,-1,1,none,none,-1,-1,-1,1222776,20775,11:31:25.026798,hand
2,264,hand2,8,cue,blue,-1,-1,-1,4,4,-1,0.4176558703848059,-1,1,none,none,-1,-1,-1,1225309,20775,11:31:25.026798,hand
2,265,hand2,8,cue,yellow,-1,-1,-1,3,3,-1,0.40235404437135003,-1,1,none,none,-1,-1,-1,1231726,20775,11:31:25.026798,hand
2,266,hand2,8,cue,yellow,-1,-1,-1,3,3,-1,0.22808702407110104,-1,1,none,none,-1,-1,-1,1234660,20775,11:31:25.026798,hand
2,267,hand2,8,cue,blue,-1,-1,-1,4,4,-1,0.36905090586333245,-1,1,none,none,-1,-1,-1,1237427,20775,11:31:25.026798,hand
2,268,hand2,8,cue,yellow,-1,-1,-1,3,3,-1,0.28264621866401285,-1,1,none,none,-1,-1,-1,1240327,20775,11:31:25.026798,hand
2,269,hand2,8,gabor,0,0.018572166246627376,4,3,-1,4,0.13464447225396725,-1,0,-1,congruent,miss,3,1,1.7225350290054848,1243042,20775,11:31:25.026798,hand
2,270,hand2,8,gabor,0,0.018572166246627376,3,3,-1,4,0.23833163287417847,-1,1,-1,incongruent,hit,q,4,1.0992796633436228,1248241,20775,11:31:25.026798,hand
2,271,hand2,8,cue,blue,-1,-1,-1,4,4,-1,0.39805214578518644,-1,1,none,none,-1,-1,-1,1252825,20775,11:31:25.026798,hand
2,272,hand2,8,cue,yellow,-1,-1,-1,3,3,-1,0.4758791474851023,-1,1,none,none,-1,-1,-1,1255559,20775,11:31:25.026798,hand
2,273,hand2,8,cue,blue,-1,-1,-1,4,4,-1,0.4307017244072995,-1,1,none,none,-1,-1,-1,1258358,20775,11:31:25.026798,hand
2,274,hand2,8,cue,yellow,-1,-1,-1,3,3,-1,0.4015622462029569,-1,1,none,none,-1,-1,-1,1261225,20775,11:31:25.026798,hand
2,275,hand2,8,cue,blue,-1,-1,-1,4,4,-1,0.707428656565753,-1,1,none,none,-1,-1,-1,1263958,20775,11:31:25.026798,hand
2,276,hand2,8,gabor,90,0.018572166246627376,3,4,-1,4,0.247117827785587,-1,0,-1,incongruent,FA,c,1,1.013191004220971,1267192,20775,11:31:25.026798,hand
2,277,hand2,8,cue,blue,-1,-1,-1,4,4,-1,0.4117553996447896,-1,1,none,none,-1,-1,-1,1274541,20775,11:31:25.026798,hand
2,278,hand2,8,gabor,0,0.018572166246627376,3,3,-1,3,0.035549894611904165,-1,1,-1,congruent,hit,q,3,1.322558299116281,1277492,20775,11:31:25.026798,hand
2,279,hand2,8,gabor,90,0.018572166246627376,3,4,-1,3,0.3492655515183287,-1,0,-1,congruent,FA,c,3,3.91505987061646,1285759,20775,11:31:25.026798,hand
2,280,hand2,8,gabor,90,0.018572166246627376,4,4,-1,3,0.08665466809543432,-1,1,-1,incongruent,CR,3,3,1.4686784688883563,1293374,20775,11:31:25.026798,hand
2,281,hand2,8,gabor,0,0.018572166246627376,3,3,-1,3,0.36332937690258404,-1,1,-1,congruent,hit,3,4,0.6662973912516463,1298374,20775,11:31:25.026798,hand
2,282,hand2,8,cue,blue,-1,-1,-1,4,4,-1,0.3932545093521185,-1,1,none,none,-1,-1,-1,1302842,20775,11:31:25.026798,hand
2,283,hand2,8,gabor,90,0.018572166246627376,3,4,-1,4,0.34086719179231295,-1,0,-1,incongruent,FA,3,2,0.09282009554590331,1308490,20775,11:31:25.026798,hand
2,284,hand2,8,cue,blue,-1,-1,-1,4,4,-1,0.4277200014284972,-1,1,none,none,-1,-1,-1,1312256,20775,11:31:25.026798,hand
2,285,hand2,8,gabor,0,0.018572166246627376,3,3,-1,4,0.099403309808622,-1,1,-1,incongruent,hit,3,3,0.9844570249815661,1315006,20775,11:31:25.026798,hand
2,286,hand2,8,cue,blue,-1,-1,-1,4,4,-1,0.40931203798118077,-1,1,none,none,-1,-1,-1,1319439,20775,11:31:25.026798,hand
2,287,hand2,8,gabor,90,0.018572166246627376,3,4,-1,4,0.14005496507797943,-1,0,-1,incongruent,FA,4,1,3.0009972356183425,1322173,20775,11:31:25.026798,hand
2,288,hand2,8,cue,blue,-1,-1,-1,3,4,-1,0.7216629758322597,-1,0,none,none,-1,-1,-1,1328757,20775,11:31:25.026798,hand
2,289,hand2,9,cue,yellow,-1,-1,-1,3,3,-1,0.37792849163997744,-1,1,none,none,-1,-1,-1,1341006,20775,11:31:25.026798,hand
2,290,hand2,9,cue,blue,-1,-1,-1,4,4,-1,0.24177261415115936,-1,1,none,none,-1,-1,-1,1343940,20775,11:31:25.026798,hand
2,291,hand2,9,cue,blue,-1,-1,-1,4,4,-1,0.40772652166742773,-1,1,none,none,-1,-1,-1,1346605,20775,11:31:25.026798,hand
2,292,hand2,9,cue,blue,-1,-1,-1,4,4,-1,0.3155745778258279,-1,1,none,none,-1,-1,-1,1349539,20775,11:31:25.026798,hand
2,293,hand2,9,cue,yellow,-1,-1,-1,4,3,-1,0.304264766248707,-1,0,none,none,-1,-1,-1,1352188,20775,11:31:25.026798,hand
2,294,hand2,9,cue,yellow,-1,-1,-1,3,3,-1,0.3603683896662915,-1,1,none,none,-1,-1,-1,1354921,20775,11:31:25.026798,hand
2,295,hand2,9,gabor,0,0.018572166246627376,3,3,-1,3,0.19409154215918534,-1,1,-1,congruent,hit,q,3,1.7688049185180716,1357605,20775,11:31:25.026798,hand
2,296,hand2,9,cue,blue,-1,-1,-1,3,4,-1,0.3147328602772177,-1,0,none,none,-1,-1,-1,1362905,20775,11:31:25.026798,hand
2,297,hand2,9,cue,blue,-1,-1,-1,4,4,-1,0.36666821544713457,-1,1,none,none,-1,-1,-1,1365555,20775,11:31:25.026798,hand
2,298,hand2,9,cue,yellow,-1,-1,-1,3,3,-1,0.3223997090854027,-1,1,none,none,-1,-1,-1,1368355,20775,11:31:25.026798,hand
2,299,hand2,9,cue,yellow,-1,-1,-1,3,3,-1,0.3929849446985827,-1,1,none,none,-1,-1,-1,1378438,20775,11:31:25.026798,hand
2,300,hand2,9,gabor,90,0.018572166246627376,3,4,-1,3,0.17571391433557437,-1,0,-1,congruent,FA,c,1,1.5256506895211714,1381154,20775,11:31:25.026798,hand
2,301,hand2,9,cue,yellow,-1,-1,-1,3,3,-1,0.3902581945540078,-1,1,none,none,-1,-1,-1,1386087,20775,11:31:25.026798,hand
2,302,hand2,9,gabor,90,0.018572166246627376,4,4,-1,4,0.325369912206952,-1,1,-1,congruent,CR,q,1,1.7302698449693708,1388904,20775,11:31:25.026798,hand
2,303,hand2,9,cue,yellow,-1,-1,-1,3,3,-1,0.2818167889627148,-1,1,none,none,-1,-1,-1,1397137,20775,11:31:25.026798,hand
2,304,hand2,9,cue,blue,-1,-1,-1,4,4,-1,0.3577245824917554,-1,1,none,none,-1,-1,-1,1399853,20775,11:31:25.026798,hand
2,305,hand2,9,cue,yellow,-1,-1,-1,4,3,-1,0.3094698216227698,-1,0,none,none,-1,-1,-1,1402738,20775,11:31:25.026798,hand
2,306,hand2,9,cue,blue,-1,-1,-1,3,4,-1,0.43330598007287335,-1,0,none,none,-1,-1,-1,1405370,20775,11:31:25.026798,hand
2,307,hand2,9,cue,blue,-1,-1,-1,4,4,-1,0.2872587693946116,-1,1,none,none,-1,-1,-1,1408137,20775,11:31:25.026798,hand
2,308,hand2,9,cue,yellow,-1,-1,-1,3,3,-1,0.4356518069471349,-1,1,none,none,-1,-1,-1,1417253,20775,11:31:25.026798,hand
2,309,hand2,9,gabor,90,0.018572166246627376,3,4,-1,4,0.3313832775447736,-1,0,-1,incongruent,FA,3,1,0.82439936425817,1420019,20775,11:31:25.026798,hand
2,310,hand2,9,gabor,90,0.018572166246627376,3,4,-1,3,0.43408203443686944,-1,0,-1,congruent,FA,3,2,0.8529989451653819,1427253,20775,11:31:25.026798,hand
2,311,hand2,9,cue,yellow,-1,-1,-1,3,3,-1,0.3045005393214524,-1,1,none,none,-1,-1,-1,1437435,20775,11:31:25.026798,hand
2,312,hand2,9,gabor,0,0.018572166246627376,4,3,-1,3,0.1602577222392938,-1,0,-1,incongruent,miss,3,1,1.206208895710006,1440069,20775,11:31:25.026798,hand
2,313,hand2,9,gabor,0,0.018572166246627376,4,3,-1,4,0.3249736291272711,-1,0,-1,congruent,miss,3,1,0.9770221092940119,1444870,20775,11:31:25.026798,hand
2,314,hand2,9,gabor,0,0.018572166246627376,3,3,-1,3,0.30080650518630137,-1,1,-1,congruent,hit,3,3,0.6277561737788346,1449402,20775,11:31:25.026798,hand
2,315,hand2,9,cue,blue,-1,-1,-1,4,4,-1,0.2425774681578332,-1,1,none,none,-1,-1,-1,1453769,20775,11:31:25.026798,hand
2,316,hand2,9,gabor,0,0.018572166246627376,3,3,-1,4,0.07735238359236973,-1,1,-1,incongruent,hit,3,2,0.9931860046026486,1456435,20775,11:31:25.026798,hand
2,317,hand2,9,gabor,0,0.018572166246627376,3,3,-1,4,0.16508953424818174,-1,1,-1,incongruent,hit,3,3,0.7950145130998862,1460736,20775,11:31:25.026798,hand
2,318,hand2,9,gabor,90,0.018572166246627376,3,4,-1,3,0.3148595787033628,-1,0,-1,congruent,FA,c,1,1.5478463819390527,1464919,20775,11:31:25.026798,hand
2,319,hand2,9,cue,yellow,-1,-1,-1,3,3,-1,0.47161795239117055,-1,1,none,none,-1,-1,-1,1470135,20775,11:31:25.026798,hand
2,320,hand2,9,gabor,90,0.018572166246627376,3,4,-1,4,0.11545315853345528,-1,0,-1,incongruent,FA,c,4,1.495396473157598,1473035,20775,11:31:25.026798,hand
2,321,hand2,9,cue,blue,-1,-1,-1,4,4,-1,0.4652025440454963,-1,1,none,none,-1,-1,-1,1477985,20775,11:31:25.026798,hand
2,322,hand2,9,cue,blue,-1,-1,-1,3,4,-1,0.27402437371256383,-1,0,none,none,-1,-1,-1,1480785,20775,11:31:25.026798,hand
2,323,hand2,9,cue,yellow,-1,-1,-1,3,3,-1,0.21194616847606085,-1,1,none,none,-1,-1,-1,1483484,20775,11:31:25.026798,hand
2,324,hand2,9,cue,blue,-1,-1,-1,4,4,-1,0.2386741566215278,-1,1,none,none,-1,-1,-1,1486034,20775,11:31:25.026798,hand
2,325,hand2,10,cue,yellow,-1,-1,-1,3,3,-1,0.13408537519626407,-1,1,none,none,-1,-1,-1,1498035,20775,11:31:25.026798,hand
2,326,hand2,10,gabor,90,0.018572166246627376,4,4,-1,3,0.07081793672477943,-1,1,-1,incongruent,CR,4,1,1.2998925965330272,1500534,20775,11:31:25.026798,hand
2,327,hand2,10,cue,yellow,-1,-1,-1,3,3,-1,0.6166018802714461,-1,1,none,none,-1,-1,-1,1505351,20775,11:31:25.026798,hand
2,328,hand2,10,gabor,0,0.018572166246627376,3,3,-1,3,0.15836424174995045,-1,1,-1,congruent,hit,3,3,0.6173783186304718,1508300,20775,11:31:25.026798,hand
2,329,hand2,10,gabor,90,0.018572166246627376,4,4,-1,3,0.21887728241927107,-1,1,-1,incongruent,CR,c,3,1.5897821172648037,1519017,20775,11:31:25.026798,hand
2,330,hand2,10,gabor,90,0.018572166246627376,3,4,-1,3,0.32353902293925785,-1,0,-1,congruent,FA,c,1,2.243335090751316,1524166,20775,11:31:25.026798,hand
2,331,hand2,10,cue,blue,-1,-1,-1,4,4,-1,0.1712622576078502,-1,1,none,none,-1,-1,-1,1530067,20775,11:31:25.026798,hand
2,332,hand2,10,cue,yellow,-1,-1,-1,3,3,-1,0.3080160156732745,-1,1,none,none,-1,-1,-1,1532767,20775,11:31:25.026798,hand
2,333,hand2,10,cue,blue,-1,-1,-1,4,4,-1,0.4138443337087665,-1,1,none,none,-1,-1,-1,1535600,20775,11:31:25.026798,hand
2,334,hand2,10,cue,yellow,-1,-1,-1,3,3,-1,0.436714321755062,-1,1,none,none,-1,-1,-1,1538350,20775,11:31:25.026798,hand
2,335,hand2,10,cue,blue,-1,-1,-1,4,4,-1,0.4575372312174295,-1,1,none,none,-1,-1,-1,1541216,20775,11:31:25.026798,hand
2,336,hand2,10,gabor,90,0.018572166246627376,4,4,-1,4,0.5243896491774649,-1,1,-1,congruent,CR,3,1,0.07331928166786383,1543999,20775,11:31:25.026798,hand
2,337,hand2,10,cue,yellow,-1,-1,-1,3,3,-1,0.37615827361878473,-1,1,none,none,-1,-1,-1,1548034,20775,11:31:25.026798,hand
2,338,hand2,10,cue,yellow,-1,-1,-1,3,3,-1,0.4350727421369811,-1,1,none,none,-1,-1,-1,1550732,20775,11:31:25.026798,hand
2,339,hand2,10,cue,yellow,-1,-1,-1,3,3,-1,0.4248603889336664,-1,1,none,none,-1,-1,-1,1553499,20775,11:31:25.026798,hand
2,340,hand2,10,gabor,0,0.018572166246627376,3,3,-1,4,0.2825390839943793,-1,1,-1,incongruent,hit,3,3,0.8856055163214478,1556450,20775,11:31:25.026798,hand
2,341,hand2,10,gabor,0,0.018572166246627376,3,3,-1,4,0.45640444528271473,-1,1,-1,incongruent,hit,q,3,1.4433236476934326,1561066,20775,11:31:25.026798,hand
2,342,hand2,10,cue,blue,-1,-1,-1,4,4,-1,0.30631798875583627,-1,1,none,none,-1,-1,-1,1566299,20775,11:31:25.026798,hand
2,343,hand2,10,cue,blue,-1,-1,-1,4,4,-1,0.396696642614188,-1,1,none,none,-1,-1,-1,1571965,20775,11:31:25.026798,hand
2,344,hand2,10,cue,blue,-1,-1,-1,3,4,-1,0.3546311169002365,-1,0,none,none,-1,-1,-1,1574799,20775,11:31:25.026798,hand
2,345,hand2,10,cue,blue,-1,-1,-1,4,4,-1,0.37846762094523,-1,1,none,none,-1,-1,-1,1577682,20775,11:31:25.026798,hand
2,346,hand2,10,cue,yellow,-1,-1,-1,3,3,-1,0.329243272115491,-1,1,none,none,-1,-1,-1,1580498,20775,11:31:25.026798,hand
2,347,hand2,10,gabor,90,0.018572166246627376,4,4,-1,4,0.26298873473206186,-1,1,-1,congruent,CR,3,2,1.5311333734480286,1583366,20775,11:31:25.026798,hand
2,348,hand2,10,cue,yellow,-1,-1,-1,3,3,-1,0.4419128492099844,-1,1,none,none,-1,-1,-1,1588497,20775,11:31:25.026798,hand
2,349,hand2,10,gabor,0,0.018572166246627376,3,3,-1,4,0.16565554322096432,-1,1,-1,incongruent,hit,c,2,2.6516456691679196,1591364,20775,11:31:25.026798,hand
2,350,hand2,10,gabor,90,0.018572166246627376,3,4,-1,4,0.1703118694076693,-1,0,-1,incongruent,FA,c,1,1.232017215274027,1600264,20775,11:31:25.026798,hand
2,351,hand2,10,cue,blue,-1,-1,-1,3,4,-1,0.49498252629655326,-1,0,none,none,-1,-1,-1,1605115,20775,11:31:25.026798,hand
2,352,hand2,10,gabor,0,0.018572166246627376,3,3,-1,3,0.19161323692969745,-1,1,-1,congruent,hit,3,4,0.8707076532937208,1607947,20775,11:31:25.026798,hand
2,353,hand2,10,cue,blue,-1,-1,-1,3,4,-1,0.4175360638719212,-1,0,none,none,-1,-1,-1,1612346,20775,11:31:25.026798,hand
2,354,hand2,10,cue,yellow,-1,-1,-1,3,3,-1,0.44424485225590615,-1,1,none,none,-1,-1,-1,1615196,20775,11:31:25.026798,hand
2,355,hand2,10,cue,blue,-1,-1,-1,4,4,-1,0.31710095887501666,-1,1,none,none,-1,-1,-1,1618081,20775,11:31:25.026798,hand
2,356,hand2,10,gabor,0,0.018572166246627376,3,3,-1,3,0.4988624141242326,-1,1,-1,congruent,hit,q,3,3.2877479793205566,1623763,20775,11:31:25.026798,hand
2,357,hand2,10,cue,yellow,-1,-1,-1,3,3,-1,0.48343694164668705,-1,1,none,none,-1,-1,-1,1630997,20775,11:31:25.026798,hand
2,358,hand2,10,cue,yellow,-1,-1,-1,3,3,-1,0.3262838208602261,-1,1,none,none,-1,-1,-1,1633912,20775,11:31:25.026798,hand
2,359,hand2,10,cue,blue,-1,-1,-1,4,4,-1,0.22722764274112706,-1,1,none,none,-1,-1,-1,1636563,20775,11:31:25.026798,hand
2,360,hand2,10,cue,blue,-1,-1,-1,4,4,-1,0.4229227489913683,-1,1,none,none,-1,-1,-1,1639113,20775,11:31:25.026798,hand
2,361,hand2,11,gabor,0,0.018572166246627376,3,3,-1,3,0.1673935056423943,-1,1,-1,congruent,hit,c,4,1.1922798526538827,1647696,20775,11:31:25.026798,hand
2,362,hand2,11,cue,blue,-1,-1,-1,4,4,-1,0.5131543326751853,-1,1,none,none,-1,-1,-1,1652428,20775,11:31:25.026798,hand
2,363,hand2,11,gabor,90,0.018572166246627376,3,4,-1,4,0.33986496423676726,-1,0,-1,incongruent,FA,q,2,1.6676344626512218,1659045,20775,11:31:25.026798,hand
2,364,hand2,11,cue,blue,-1,-1,-1,3,4,-1,0.46648931206891575,-1,0,none,none,-1,-1,-1,1664395,20775,11:31:25.026798,hand
2,365,hand2,11,cue,blue,-1,-1,-1,3,4,-1,0.3707189811530043,-1,0,none,none,-1,-1,-1,1675895,20775,11:31:25.026798,hand
2,366,hand2,11,gabor,90,0.018572166246627376,3,4,-1,3,0.25920676568875933,-1,0,-1,congruent,FA,q,1,1.4383136618980643,1685295,20775,11:31:25.026798,hand
2,367,hand2,11,cue,yellow,-1,-1,-1,4,3,-1,0.564038308900308,-1,0,none,none,-1,-1,-1,1690228,20775,11:31:25.026798,hand
2,368,hand2,11,cue,yellow,-1,-1,-1,3,3,-1,0.1289310071924774,-1,1,none,none,-1,-1,-1,1693128,20775,11:31:25.026798,hand
2,369,hand2,11,cue,blue,-1,-1,-1,4,4,-1,0.3286331036906631,-1,1,none,none,-1,-1,-1,1695694,20775,11:31:25.026798,hand
2,370,hand2,11,cue,yellow,-1,-1,-1,3,3,-1,0.24754521447812294,-1,1,none,none,-1,-1,-1,1698344,20775,11:31:25.026798,hand
2,371,hand2,11,cue,blue,-1,-1,-1,4,4,-1,0.21440949789121078,-1,1,none,none,-1,-1,-1,1701027,20775,11:31:25.026798,hand
2,372,hand2,11,cue,yellow,-1,-1,-1,3,3,-1,0.4432403207274547,-1,1,none,none,-1,-1,-1,1703778,20775,11:31:25.026798,hand
2,373,hand2,11,gabor,0,0.018572166246627376,4,3,-1,4,0.1730301716579561,-1,0,-1,congruent,miss,c,2,4.215963910592109,1706544,20775,11:31:25.026798,hand
2,374,hand2,11,cue,blue,-1,-1,-1,4,4,-1,0.3836826601964276,-1,1,none,none,-1,-1,-1,1714177,20775,11:31:25.026798,hand
2,375,hand2,11,gabor,0,0.018572166246627376,3,3,-1,3,0.2764949990378227,-1,1,-1,congruent,hit,c,4,1.406455881443435,1716893,20775,11:31:25.026798,hand
2,376,hand2,11,cue,blue,-1,-1,-1,4,4,-1,0.2632433235712597,-1,1,none,none,-1,-1,-1,1722010,20775,11:31:25.026798,hand
2,377,hand2,11,cue,yellow,-1,-1,-1,3,3,-1,0.37297802510511247,-1,1,none,none,-1,-1,-1,1724812,20775,11:31:25.026798,hand
2,378,hand2,11,cue,blue,-1,-1,-1,4,4,-1,0.26481232808964705,-1,1,none,none,-1,-1,-1,1730543,20775,11:31:25.026798,hand
2,379,hand2,11,cue,blue,-1,-1,-1,4,4,-1,0.1996951845840158,-1,1,none,none,-1,-1,-1,1733243,20775,11:31:25.026798,hand
2,380,hand2,11,gabor,0,0.018572166246627376,3,3,-1,3,0.05046772539299127,-1,1,-1,congruent,hit,q,4,1.140460848038856,1735776,20775,11:31:25.026798,hand
2,381,hand2,11,gabor,0,0.018572166246627376,3,3,-1,4,0.43024400209014857,-1,1,-1,incongruent,hit,q,2,4.116042591214864,1740411,20775,11:31:25.026798,hand
2,382,hand2,11,cue,blue,-1,-1,-1,4,4,-1,0.30973209036710614,-1,1,none,none,-1,-1,-1,1748209,20775,11:31:25.026798,hand
2,383,hand2,11,cue,yellow,-1,-1,-1,4,3,-1,0.38365078859169444,-1,0,none,none,-1,-1,-1,1750942,20775,11:31:25.026798,hand
2,384,hand2,11,gabor,0,0.018572166246627376,3,3,-1,4,0.18440411043866334,-1,1,-1,incongruent,hit,3,4,1.3321263083198573,1753659,20775,11:31:25.026798,hand
2,385,hand2,11,gabor,90,0.018572166246627376,4,4,-1,4,0.223350058885444,-1,1,-1,congruent,CR,c,3,1.1851337013804368,1758526,20775,11:31:25.026798,hand
2,386,hand2,11,gabor,90,0.018572166246627376,3,4,-1,3,0.20981461094197584,-1,0,-1,congruent,FA,c,1,1.0118155332984315,1763275,20775,11:31:25.026798,hand
2,387,hand2,11,cue,blue,-1,-1,-1,4,4,-1,0.47958047752854327,-1,1,none,none,-1,-1,-1,1767725,20775,11:31:25.026798,hand
2,388,hand2,11,cue,yellow,-1,-1,-1,3,3,-1,0.26640898026562354,-1,1,none,none,-1,-1,-1,1770743,20775,11:31:25.026798,hand
2,389,hand2,11,cue,blue,-1,-1,-1,4,4,-1,0.23724147040957178,-1,1,none,none,-1,-1,-1,1773341,20775,11:31:25.026798,hand
2,390,hand2,11,cue,yellow,-1,-1,-1,4,3,-1,0.31076503754138685,-1,0,none,none,-1,-1,-1,1782508,20775,11:31:25.026798,hand
2,391,hand2,11,cue,yellow,-1,-1,-1,3,3,-1,0.26876210304999404,-1,1,none,none,-1,-1,-1,1785359,20775,11:31:25.026798,hand
2,392,hand2,11,cue,yellow,-1,-1,-1,3,3,-1,0.31951513690000866,-1,1,none,none,-1,-1,-1,1788058,20775,11:31:25.026798,hand
2,393,hand2,11,gabor,90,0.018572166246627376,4,4,-1,3,0.1833250838353706,-1,1,-1,incongruent,CR,c,4,0.9472901264462052,1790707,20775,11:31:25.026798,hand
2,394,hand2,11,gabor,90,0.018572166246627376,4,4,-1,4,0.40565179542772967,-1,1,-1,congruent,CR,c,2,1.302855887741316,1798024,20775,11:31:25.026798,hand
2,395,hand2,11,cue,yellow,-1,-1,-1,3,3,-1,0.28250490841855935,-1,1,none,none,-1,-1,-1,1822806,20775,11:31:25.026798,hand
2,396,hand2,11,cue,yellow,-1,-1,-1,3,3,-1,0.26835506810402876,-1,1,none,none,-1,-1,-1,1825423,20775,11:31:25.026798,hand
