start,accuracy_gabor,delta,orientation,pressed_gabor,expected_gabor,rt_gabor,trial,participant,response condition,date,expName,
0.0005,0,0.0005,90,4,3,0.5642241625937459,0,9,1,2021_Apr_15_1654,Motor,
0.0425,1,0.0425,0,4,4,0.5399337761846255,1,9,1,2021_Apr_15_1654,Motor,
0.0005,0,0.004999999999999999,90,4,3,0.6827116514505178,2,9,1,2021_Apr_15_1654,Motor,
0.0425,1,0.038000000000000006,0,4,4,0.4613983032795659,3,9,1,2021_Apr_15_1654,Motor,
0.0425,1,0.03350000000000001,90,3,3,0.4791423389688134,4,9,1,2021_Apr_15_1654,Motor,
0.0005,0,0.009499999999999998,0,3,4,0.6651891810106463,5,9,1,2021_Apr_15_1654,Motor,
0.0425,1,0.02900000000000001,90,3,3,0.42688058784915484,6,9,1,2021_Apr_15_1654,Motor,
0.0005,1,0.013999999999999999,90,3,3,0.5887046266434481,7,9,1,2021_Apr_15_1654,Motor,
0.0425,1,0.024500000000000008,90,3,3,0.5004172108201601,8,9,1,2021_Apr_15_1654,Motor,
0.0005,1,0.009499999999999998,90,3,3,1.0862714408540342,9,9,1,2021_Apr_15_1654,Motor,
0.0005,1,0.009499999999999998,90,3,3,0.7070116377435625,10,9,1,2021_Apr_15_1654,Motor,
0.0425,1,0.020000000000000007,90,3,3,0.49972294743929524,11,9,1,2021_Apr_15_1654,Motor,
0.0005,1,0.009499999999999998,0,4,4,0.5574593185847334,12,9,1,2021_Apr_15_1654,Motor,
0.0425,1,0.015500000000000007,0,4,4,0.7073030901228776,13,9,1,2021_Apr_15_1654,Motor,
0.0425,0,0.011000000000000006,0,3,4,0.7410566550424846,14,9,1,2021_Apr_15_1654,Motor,
0.0005,0,0.004999999999999998,0,3,4,0.6978191758753383,15,9,1,2021_Apr_15_1654,Motor,
0.0425,1,0.015500000000000007,90,3,3,0.568603244220867,16,9,1,2021_Apr_15_1654,Motor,
0.0005,1,0.009499999999999998,90,3,3,0.956329758209904,17,9,1,2021_Apr_15_1654,Motor,
0.0425,0,0.015500000000000007,0,3,4,0.7202798250036722,18,9,1,2021_Apr_15_1654,Motor,
0.0005,0,0.009499999999999998,0,3,4,0.7839174348810047,19,9,1,2021_Apr_15_1654,Motor,
0.0425,1,0.020000000000000007,90,3,3,0.5966291362528864,20,9,1,2021_Apr_15_1654,Motor,
0.0005,1,0.013999999999999999,0,4,4,0.6205055758036906,21,9,1,2021_Apr_15_1654,Motor,
0.0005,1,0.013999999999999999,90,3,3,0.5242160833331582,22,9,1,2021_Apr_15_1654,Motor,
0.0425,1,0.020000000000000007,0,4,4,0.5941005276508804,23,9,1,2021_Apr_15_1654,Motor,
0.0425,1,0.020000000000000007,0,4,4,0.5468606661779631,24,9,1,2021_Apr_15_1654,Motor,
0.0005,0,0.013999999999999999,90,4,3,0.5715527116008161,25,9,1,2021_Apr_15_1654,Motor,
0.0005,1,0.0185,90,3,3,0.652314204868162,26,9,1,2021_Apr_15_1654,Motor,
0.0425,0,0.015500000000000007,0,3,4,0.822118816573493,27,9,1,2021_Apr_15_1654,Motor,
0.0425,1,0.020000000000000007,0,4,4,0.7209836882684613,28,9,1,2021_Apr_15_1654,Motor,
0.0005,1,0.0185,0,4,4,0.4886266372122918,29,9,1,2021_Apr_15_1654,Motor,
0.0005,1,0.0185,0,4,4,0.5083858798789151,30,9,1,2021_Apr_15_1654,Motor,
0.0425,1,0.020000000000000007,90,3,3,0.5601614930346841,31,9,1,2021_Apr_15_1654,Motor,
0.0005,1,0.013999999999999999,90,3,3,0.9450606501268339,32,9,1,2021_Apr_15_1654,Motor,
0.0425,1,0.020000000000000007,0,4,4,0.8159027017536573,33,9,1,2021_Apr_15_1654,Motor,
0.0005,1,0.013999999999999999,0,4,4,0.5723395178320061,34,9,1,2021_Apr_15_1654,Motor,
0.0425,1,0.015500000000000007,90,3,3,0.6429216814831307,35,9,1,2021_Apr_15_1654,Motor,
0.0005,0,0.013999999999999999,0,3,4,0.9196071421611123,36,9,1,2021_Apr_15_1654,Motor,
0.0005,1,0.0185,0,4,4,1.4975541423664254,37,9,1,2021_Apr_15_1654,Motor,
0.0425,1,0.015500000000000007,0,4,4,0.6110665889973461,38,9,1,2021_Apr_15_1654,Motor,
0.0425,1,0.015500000000000007,90,3,3,0.5573928874109697,39,9,1,2021_Apr_15_1654,Motor,
0.0005,1,0.0185,0,4,4,0.47619978350485326,40,9,1,2021_Apr_15_1654,Motor,
0.0005,1,0.0185,90,3,3,2.5558330987732916,41,9,1,2021_Apr_15_1654,Motor,
0.0425,0,0.011000000000000006,0,3,4,0.6146481125288119,42,9,1,2021_Apr_15_1654,Motor,
0.0425,1,0.015500000000000007,0,4,4,0.5253093177598203,43,9,1,2021_Apr_15_1654,Motor,
0.0005,1,0.013999999999999999,0,4,4,1.9561442885133147,44,9,1,2021_Apr_15_1654,Motor,
0.0425,1,0.015500000000000007,0,4,4,0.912996664232196,45,9,1,2021_Apr_15_1654,Motor,
0.0005,1,0.013999999999999999,0,4,4,0.7376882488642877,46,9,1,2021_Apr_15_1654,Motor,
0.0005,0,0.013999999999999999,90,4,3,0.8382911597764178,47,9,1,2021_Apr_15_1654,Motor,
0.0425,1,0.015500000000000007,90,3,3,1.123186054519465,48,9,1,2021_Apr_15_1654,Motor,
0.0425,1,0.011000000000000006,90,3,3,1.1660203386927606,49,9,1,2021_Apr_15_1654,Motor,
0.0005,0,0.0185,90,4,3,1.306582561468531,50,9,1,2021_Apr_15_1654,Motor,
0.0425,0,0.011000000000000006,0,3,4,1.0504581255117955,51,9,1,2021_Apr_15_1654,Motor,
0.0005,1,0.023,90,3,3,0.5742007427215867,52,9,1,2021_Apr_15_1654,Motor,
0.0005,1,0.023,90,3,3,0.4739407395500166,53,9,1,2021_Apr_15_1654,Motor,
0.0425,1,0.015500000000000007,0,4,4,0.5576958596502664,54,9,1,2021_Apr_15_1654,Motor,
0.0005,1,0.023,90,3,3,0.6305658668934484,55,9,1,2021_Apr_15_1654,Motor,
0.0425,1,0.015500000000000007,0,4,4,0.585204126102326,56,9,1,2021_Apr_15_1654,Motor,
0.0005,0,0.0185,90,4,3,0.6731136906237225,57,9,1,2021_Apr_15_1654,Motor,
0.0425,1,0.015500000000000007,0,4,4,0.9128998974338174,58,9,1,2021_Apr_15_1654,Motor,
0.0005,1,0.023,0,4,4,0.590575451416953,59,9,1,2021_Apr_15_1654,Motor,
0.0425,1,0.011000000000000006,90,3,3,0.5373133927168965,60,9,1,2021_Apr_15_1654,Motor,
0.0005,1,0.023,0,4,4,0.5501760810147971,61,9,1,2021_Apr_15_1654,Motor,
0.0425,0,0.011000000000000006,90,4,3,0.8549308251785988,62,9,1,2021_Apr_15_1654,Motor,
0.0005,1,0.023,0,4,4,0.6446700117776345,63,9,1,2021_Apr_15_1654,Motor,
0.0425,1,0.015500000000000007,90,3,3,0.8483476109176991,64,9,1,2021_Apr_15_1654,Motor,
0.0005,0,0.0185,0,3,4,1.4332257250716793,65,9,1,2021_Apr_15_1654,Motor,
0.0425,0,0.015500000000000007,0,3,4,3.263998258196807,66,9,1,2021_Apr_15_1654,Motor,
0.0425,1,0.020000000000000007,90,3,3,0.5215093009428529,67,9,1,2021_Apr_15_1654,Motor,
0.0005,1,0.023,90,3,3,0.8254975906238542,68,9,1,2021_Apr_15_1654,Motor,
0.0425,1,0.020000000000000007,0,4,4,0.49726537795504555,69,9,1,2021_Apr_15_1654,Motor,
0.0005,1,0.023,90,3,3,0.6119536179830902,70,9,1,2021_Apr_15_1654,Motor,
0.0005,1,0.023,90,3,3,0.6467159383755643,71,9,1,2021_Apr_15_1654,Motor,
0.0425,1,0.020000000000000007,90,3,3,0.5014885575183143,72,9,1,2021_Apr_15_1654,Motor,
0.0425,0,0.015500000000000007,0,3,4,0.6122681100787304,73,9,1,2021_Apr_15_1654,Motor,
0.0005,1,0.0185,0,4,4,0.6210715847773827,74,9,1,2021_Apr_15_1654,Motor,
0.0425,1,0.020000000000000007,0,4,4,0.5717838767304784,75,9,1,2021_Apr_15_1654,Motor,
0.0005,1,0.0185,90,3,3,0.7095283424969239,76,9,1,2021_Apr_15_1654,Motor,
0.0425,1,0.020000000000000007,0,4,4,0.5083474803577701,77,9,1,2021_Apr_15_1654,Motor,
0.0005,1,0.0185,0,4,4,0.5973145677417051,78,9,1,2021_Apr_15_1654,Motor,
0.0005,1,0.013999999999999999,0,4,4,0.469130815272365,79,9,1,2021_Apr_15_1654,Motor,
0.0425,1,0.020000000000000007,0,4,4,0.6417527999983577,80,9,1,2021_Apr_15_1654,Motor,
0.0425,0,0.015500000000000007,0,3,4,0.7096116694629018,81,9,1,2021_Apr_15_1654,Motor,
0.0005,1,0.013999999999999999,0,4,4,0.5873729311788338,82,9,1,2021_Apr_15_1654,Motor,
0.0425,1,0.020000000000000007,90,3,3,0.6902049344134866,83,9,1,2021_Apr_15_1654,Motor,
0.0005,0,0.013999999999999999,0,3,4,0.8651216746475257,84,9,1,2021_Apr_15_1654,Motor,
0.0425,1,0.020000000000000007,90,3,3,0.5806134631020541,85,9,1,2021_Apr_15_1654,Motor,
0.0005,1,0.0185,0,4,4,0.7794131708033092,86,9,1,2021_Apr_15_1654,Motor,
0.0005,0,0.0185,90,4,3,1.143134606842068,87,9,1,2021_Apr_15_1654,Motor,
0.0425,1,0.020000000000000007,0,4,4,2.7818688203187776,88,9,1,2021_Apr_15_1654,Motor,
0.0005,1,0.023,90,3,3,0.5845889657430234,89,9,1,2021_Apr_15_1654,Motor,
0.0425,1,0.015500000000000007,0,4,4,1.1063110000432061,90,9,1,2021_Apr_15_1654,Motor,
0.0425,1,0.015500000000000007,90,3,3,0.9031072510224476,91,9,1,2021_Apr_15_1654,Motor,
0.0005,1,0.023,0,4,4,0.618819836730836,92,9,1,2021_Apr_15_1654,Motor,
0.0005,1,0.023,90,3,3,0.7486424808557786,93,9,1,2021_Apr_15_1654,Motor,
0.0425,1,0.015500000000000007,90,3,3,0.6075322968790715,94,9,1,2021_Apr_15_1654,Motor,
0.0005,1,0.0185,0,4,4,0.6102509831216594,95,9,1,2021_Apr_15_1654,Motor,
0.0425,0,0.011000000000000006,0,3,4,0.6310193652643648,96,9,1,2021_Apr_15_1654,Motor,
0.0425,1,0.015500000000000007,0,4,4,0.7007152679179853,97,9,1,2021_Apr_15_1654,Motor,
0.0005,1,0.0185,90,3,3,0.7184930951880233,98,9,1,2021_Apr_15_1654,Motor,
