subject_id,trial,effector_order,block,condition,stim1,gabor.contrast,pressed_gabor,expected_gabor,pressed_cue,expected_cue,rt_gabor,rt_cue,accuracy_gabor,accuracy_cue,congruency,SDT,pressed_conf,conf,rt_conf,trial_start_time_rel2bloc,bloc_start_time_rel2exp,exp_start_date,effector
9,1,hand1,1,cue,white,-1,-1,-1,3,4,-1,0.4686354614220818,-1,0,none,none,-1,-1,-1,0,13520,10:41:31.849341,hand
9,2,hand1,1,cue,white,-1,-1,-1,4,4,-1,0.2864308756743412,-1,1,none,none,-1,-1,-1,2949,13520,10:41:31.849341,hand
9,3,hand1,1,cue,black,-1,-1,-1,3,3,-1,0.20326326828308083,-1,1,none,none,-1,-1,-1,5665,13520,10:41:31.849341,hand
9,4,hand1,1,cue,white,-1,-1,-1,4,4,-1,0.30418681521655344,-1,1,none,none,-1,-1,-1,8299,13520,10:41:31.849341,hand
9,5,hand1,1,cue,black,-1,-1,-1,4,3,-1,0.37769886249088813,-1,0,none,none,-1,-1,-1,13865,13520,10:41:31.849341,hand
9,6,hand1,1,gabor,0,0.01893998810188211,4,4,-1,3,0.544664981439837,-1,1,-1,incongruent,hit,4,1,1.641523938838418,16783,13520,10:41:31.849341,hand
9,7,hand1,1,gabor,90,0.01893998810188211,3,3,-1,3,0.5422945788704965,-1,1,-1,congruent,CR,c,4,0.7212993323473711,22315,13520,10:41:31.849341,hand
9,8,hand1,1,cue,white,-1,-1,-1,4,4,-1,0.26896293255595083,-1,1,none,none,-1,-1,-1,27016,13520,10:41:31.849341,hand
9,9,hand1,1,cue,black,-1,-1,-1,3,3,-1,0.3589710310156988,-1,1,none,none,-1,-1,-1,29715,13520,10:41:31.849341,hand
9,10,hand1,1,cue,black,-1,-1,-1,3,3,-1,0.3996664617411625,-1,1,none,none,-1,-1,-1,32415,13520,10:41:31.849341,hand
9,11,hand1,1,cue,white,-1,-1,-1,4,4,-1,0.47145859436977844,-1,1,none,none,-1,-1,-1,35349,13520,10:41:31.849341,hand
9,12,hand1,1,gabor,90,0.01893998810188211,4,3,-1,4,0.6212585904536354,-1,0,-1,congruent,FA,q,3,2.413318260240885,38147,13520,10:41:31.849341,hand
9,13,hand1,1,cue,black,-1,-1,-1,3,3,-1,0.2300933991605234,-1,1,none,none,-1,-1,-1,44616,13520,10:41:31.849341,hand
9,14,hand1,1,cue,white,-1,-1,-1,4,4,-1,0.24193082018700807,-1,1,none,none,-1,-1,-1,47282,13520,10:41:31.849341,hand
9,15,hand1,1,cue,white,-1,-1,-1,4,4,-1,0.37382473459229004,-1,1,none,none,-1,-1,-1,50065,13520,10:41:31.849341,hand
9,16,hand1,1,cue,black,-1,-1,-1,3,3,-1,0.18573542190870285,-1,1,none,none,-1,-1,-1,52982,13520,10:41:31.849341,hand
9,17,hand1,1,cue,white,-1,-1,-1,4,4,-1,0.17142660756735495,-1,1,none,none,-1,-1,-1,55497,13520,10:41:31.849341,hand
9,18,hand1,1,cue,black,-1,-1,-1,3,3,-1,0.29936306710806093,-1,1,none,none,-1,-1,-1,58198,13520,10:41:31.849341,hand
9,19,hand1,1,gabor,0,0.01893998810188211,4,4,-1,3,0.4671893353774976,-1,1,-1,incongruent,hit,c,1,0.9041689978375871,61032,13520,10:41:31.849341,hand
9,20,hand1,1,gabor,90,0.01893998810188211,3,3,-1,3,0.4569151589412286,-1,1,-1,congruent,CR,c,2,0.6368073254002411,65748,13520,10:41:31.849341,hand
9,21,hand1,1,gabor,0,0.01893998810188211,4,4,-1,4,0.6263492152479557,-1,1,-1,congruent,hit,3,2,1.4713391718528328,73746,13520,10:41:31.849341,hand
9,22,hand1,1,cue,black,-1,-1,-1,3,3,-1,0.21625344299718563,-1,1,none,none,-1,-1,-1,79180,13520,10:41:31.849341,hand
9,23,hand1,1,gabor,90,0.01893998810188211,3,3,-1,4,0.5038002088163012,-1,1,-1,incongruent,CR,4,4,1.290700518662561,84663,13520,10:41:31.849341,hand
9,24,hand1,1,cue,black,-1,-1,-1,3,3,-1,0.4574946077468667,-1,1,none,none,-1,-1,-1,89696,13520,10:41:31.849341,hand
9,25,hand1,1,gabor,90,0.01893998810188211,3,3,-1,3,0.5102363529053946,-1,1,-1,congruent,CR,3,4,1.3143607688966767,92697,13520,10:41:31.849341,hand
9,26,hand1,1,gabor,90,0.01893998810188211,3,3,-1,4,0.6968576518156624,-1,1,-1,incongruent,CR,q,3,1.3538155110268235,100596,13520,10:41:31.849341,hand
9,27,hand1,1,cue,black,-1,-1,-1,3,3,-1,0.18249911009070274,-1,1,none,none,-1,-1,-1,105895,13520,10:41:31.849341,hand
9,28,hand1,1,gabor,0,0.01893998810188211,4,4,-1,4,0.6644426942798418,-1,1,-1,congruent,hit,3,4,1.278216833659826,108512,13520,10:41:31.849341,hand
9,29,hand1,1,gabor,0,0.01893998810188211,3,4,-1,4,0.7491712422897763,-1,0,-1,incongruent,miss,q,2,3.207992553564509,113796,13520,10:41:31.849341,hand
9,30,hand1,1,cue,white,-1,-1,-1,4,4,-1,0.2606429078578003,-1,1,none,none,-1,-1,-1,120995,13520,10:41:31.849341,hand
9,31,hand1,1,cue,white,-1,-1,-1,4,4,-1,0.262495300858518,-1,1,none,none,-1,-1,-1,123595,13520,10:41:31.849341,hand
9,32,hand1,1,cue,black,-1,-1,-1,3,3,-1,0.231398598954911,-1,1,none,none,-1,-1,-1,126295,13520,10:41:31.849341,hand
9,33,hand1,1,cue,white,-1,-1,-1,4,4,-1,0.19228484459108586,-1,1,none,none,-1,-1,-1,128961,13520,10:41:31.849341,hand
9,34,hand1,1,gabor,0,0.01893998810188211,4,4,-1,3,0.5111360537343899,-1,1,-1,incongruent,hit,4,3,2.7950402407805086,131596,13520,10:41:31.849341,hand
9,35,hand1,1,cue,black,-1,-1,-1,3,3,-1,0.2558203117350786,-1,1,none,none,-1,-1,-1,138329,13520,10:41:31.849341,hand
9,36,hand1,1,cue,white,-1,-1,-1,4,4,-1,0.2636019751180356,-1,1,none,none,-1,-1,-1,141112,13520,10:41:31.849341,hand
9,37,hand1,2,cue,white,-1,-1,-1,4,4,-1,0.22096122454513534,-1,1,none,none,-1,-1,-1,152877,13520,10:41:31.849341,hand
9,38,hand1,2,cue,white,-1,-1,-1,4,4,-1,0.19174878724743394,-1,1,none,none,-1,-1,-1,155577,13520,10:41:31.849341,hand
9,39,hand1,2,cue,black,-1,-1,-1,3,3,-1,0.1744528739927773,-1,1,none,none,-1,-1,-1,158111,13520,10:41:31.849341,hand
9,40,hand1,2,cue,black,-1,-1,-1,3,3,-1,0.19238929129460303,-1,1,none,none,-1,-1,-1,160828,13520,10:41:31.849341,hand
9,41,hand1,2,cue,white,-1,-1,-1,4,4,-1,0.27227105148267583,-1,1,none,none,-1,-1,-1,163343,13520,10:41:31.849341,hand
9,42,hand1,2,gabor,90,0.01893998810188211,4,3,-1,3,0.40620820451886175,-1,0,-1,incongruent,FA,q,1,1.6340844152082354,165944,13520,10:41:31.849341,hand
9,43,hand1,2,cue,white,-1,-1,-1,3,4,-1,0.5448953785789854,-1,0,none,none,-1,-1,-1,171327,13520,10:41:31.849341,hand
9,44,hand1,2,cue,white,-1,-1,-1,4,4,-1,0.22367875880445354,-1,1,none,none,-1,-1,-1,174395,13520,10:41:31.849341,hand
9,45,hand1,2,gabor,90,0.01893998810188211,3,3,-1,3,0.7554257566339402,-1,1,-1,congruent,CR,c,4,1.2124035067981822,177144,13520,10:41:31.849341,hand
9,46,hand1,2,cue,black,-1,-1,-1,3,3,-1,0.7362924261933586,-1,1,none,none,-1,-1,-1,182444,13520,10:41:31.849341,hand
9,47,hand1,2,cue,black,-1,-1,-1,3,3,-1,0.20618815996795092,-1,1,none,none,-1,-1,-1,185610,13520,10:41:31.849341,hand
9,48,hand1,2,cue,black,-1,-1,-1,3,3,-1,0.13993093461749595,-1,1,none,none,-1,-1,-1,188344,13520,10:41:31.849341,hand
9,49,hand1,2,cue,white,-1,-1,-1,4,4,-1,0.17580799316783668,-1,1,none,none,-1,-1,-1,191011,13520,10:41:31.849341,hand
9,50,hand1,2,gabor,0,0.01893998810188211,4,4,-1,4,0.4703822557339663,-1,1,-1,congruent,hit,c,3,1.0414795489900825,193509,13520,10:41:31.849341,hand
9,51,hand1,2,cue,black,-1,-1,-1,3,3,-1,0.23726873407122184,-1,1,none,none,-1,-1,-1,198359,13520,10:41:31.849341,hand
9,52,hand1,2,cue,white,-1,-1,-1,4,4,-1,0.18621080800630807,-1,1,none,none,-1,-1,-1,200926,13520,10:41:31.849341,hand
9,53,hand1,2,cue,white,-1,-1,-1,4,4,-1,0.16806818526538336,-1,1,none,none,-1,-1,-1,203644,13520,10:41:31.849341,hand
9,54,hand1,2,gabor,0,0.01893998810188211,4,4,-1,4,0.32942682183647776,-1,1,-1,congruent,hit,c,2,1.0475220979656115,209909,13520,10:41:31.849341,hand
9,55,hand1,2,gabor,0,0.01893998810188211,4,4,-1,4,0.387154361091234,-1,1,-1,congruent,hit,4,3,1.4023563483433463,214525,13520,10:41:31.849341,hand
9,56,hand1,2,cue,white,-1,-1,-1,4,4,-1,0.37611987409536596,-1,1,none,none,-1,-1,-1,219642,13520,10:41:31.849341,hand
9,57,hand1,2,gabor,90,0.01893998810188211,3,3,-1,4,0.3921113555456941,-1,1,-1,incongruent,CR,c,4,0.9078649519487954,222543,13520,10:41:31.849341,hand
9,58,hand1,2,cue,white,-1,-1,-1,4,4,-1,0.22565364628417228,-1,1,none,none,-1,-1,-1,227092,13520,10:41:31.849341,hand
9,59,hand1,2,gabor,90,0.01893998810188211,3,3,-1,3,0.5073825003387356,-1,1,-1,congruent,CR,q,4,0.7564759835941004,229842,13520,10:41:31.849341,hand
9,60,hand1,2,cue,black,-1,-1,-1,4,3,-1,0.4102489863489609,-1,0,none,none,-1,-1,-1,234543,13520,10:41:31.849341,hand
9,61,hand1,2,gabor,0,0.01893998810188211,4,4,-1,3,0.739107111246085,-1,1,-1,incongruent,hit,q,4,1.0049804181630861,237375,13520,10:41:31.849341,hand
9,62,hand1,2,cue,black,-1,-1,-1,3,3,-1,0.5728195118726944,-1,1,none,none,-1,-1,-1,242458,13520,10:41:31.849341,hand
9,63,hand1,2,cue,black,-1,-1,-1,3,3,-1,0.30671388784003284,-1,1,none,none,-1,-1,-1,245458,13520,10:41:31.849341,hand
9,64,hand1,2,cue,black,-1,-1,-1,3,3,-1,0.25242579388122977,-1,1,none,none,-1,-1,-1,248191,13520,10:41:31.849341,hand
9,65,hand1,2,gabor,0,0.01893998810188211,4,4,-1,3,0.3063636841884545,-1,1,-1,incongruent,hit,c,3,0.6832872603054057,250874,13520,10:41:31.849341,hand
9,66,hand1,2,cue,black,-1,-1,-1,3,3,-1,0.16481152170035784,-1,1,none,none,-1,-1,-1,258874,13520,10:41:31.849341,hand
9,67,hand1,2,cue,black,-1,-1,-1,3,3,-1,0.25255251230828435,-1,1,none,none,-1,-1,-1,261374,13520,10:41:31.849341,hand
9,68,hand1,2,cue,white,-1,-1,-1,4,4,-1,0.20751217552879098,-1,1,none,none,-1,-1,-1,264158,13520,10:41:31.849341,hand
9,69,hand1,2,gabor,90,0.01893998810188211,3,3,-1,4,0.3083873390628469,-1,1,-1,incongruent,CR,c,4,0.8032700265994208,266891,13520,10:41:31.849341,hand
9,70,hand1,2,cue,white,-1,-1,-1,3,4,-1,0.19030726914525076,-1,0,none,none,-1,-1,-1,271241,13520,10:41:31.849341,hand
9,71,hand1,2,gabor,0,0.01893998810188211,4,4,-1,3,0.6289761266320966,-1,1,-1,incongruent,hit,4,2,1.266762255879712,273857,13520,10:41:31.849341,hand
9,72,hand1,2,gabor,90,0.01893998810188211,3,3,-1,4,0.5414981727590202,-1,1,-1,incongruent,CR,c,2,0.7865988735884457,279090,13520,10:41:31.849341,hand
9,73,hand1,3,cue,white,-1,-1,-1,4,4,-1,0.24118318146929596,-1,1,none,none,-1,-1,-1,288873,13520,10:41:31.849341,hand
9,74,hand1,3,gabor,0,0.01893998810188211,4,4,-1,3,0.3239641056616165,-1,1,-1,incongruent,hit,4,3,1.5488163538961999,291573,13520,10:41:31.849341,hand
9,75,hand1,3,cue,black,-1,-1,-1,3,3,-1,0.30668700817386707,-1,1,none,none,-1,-1,-1,296789,13520,10:41:31.849341,hand
9,76,hand1,3,gabor,90,0.01893998810188211,3,3,-1,3,0.4855508354007725,-1,1,-1,congruent,CR,q,4,0.715402701559924,299523,13520,10:41:31.849341,hand
9,77,hand1,3,cue,black,-1,-1,-1,3,3,-1,0.17622232402391091,-1,1,none,none,-1,-1,-1,303973,13520,10:41:31.849341,hand
9,78,hand1,3,cue,white,-1,-1,-1,4,4,-1,0.24898289262819162,-1,1,none,none,-1,-1,-1,310240,13520,10:41:31.849341,hand
9,79,hand1,3,cue,black,-1,-1,-1,3,3,-1,0.32873831838469414,-1,1,none,none,-1,-1,-1,312922,13520,10:41:31.849341,hand
9,80,hand1,3,gabor,0,0.01893998810188211,4,4,-1,4,0.009181326004636503,-1,1,-1,congruent,hit,c,2,0.8462855565185237,319355,13520,10:41:31.849341,hand
9,81,hand1,3,cue,white,-1,-1,-1,4,4,-1,0.2833078424496307,-1,1,none,none,-1,-1,-1,323439,13520,10:41:31.849341,hand
9,82,hand1,3,gabor,0,0.01893998810188211,4,4,-1,4,0.6449714480345392,-1,1,-1,congruent,hit,q,3,1.2648902791224828,326056,13520,10:41:31.849341,hand
9,83,hand1,3,cue,white,-1,-1,-1,4,4,-1,0.48073975913530376,-1,1,none,none,-1,-1,-1,331205,13520,10:41:31.849341,hand
9,84,hand1,3,cue,white,-1,-1,-1,4,4,-1,0.20756017493295076,-1,1,none,none,-1,-1,-1,334122,13520,10:41:31.849341,hand
9,85,hand1,3,cue,white,-1,-1,-1,4,4,-1,0.38821610790864725,-1,1,none,none,-1,-1,-1,336855,13520,10:41:31.849341,hand
9,86,hand1,3,cue,black,-1,-1,-1,3,3,-1,0.22225759244975052,-1,1,none,none,-1,-1,-1,339773,13520,10:41:31.849341,hand
9,87,hand1,3,cue,black,-1,-1,-1,3,3,-1,0.16215235471645428,-1,1,none,none,-1,-1,-1,342322,13520,10:41:31.849341,hand
9,88,hand1,3,cue,black,-1,-1,-1,3,3,-1,0.3190992700633615,-1,1,none,none,-1,-1,-1,344922,13520,10:41:31.849341,hand
9,89,hand1,3,gabor,90,0.01893998810188211,3,3,-1,3,0.7347871648826185,-1,1,-1,congruent,CR,q,4,1.148660298233608,347671,13520,10:41:31.849341,hand
9,90,hand1,3,cue,black,-1,-1,-1,3,3,-1,0.33747843386800014,-1,1,none,none,-1,-1,-1,352804,13520,10:41:31.849341,hand
9,91,hand1,3,cue,white,-1,-1,-1,4,4,-1,0.21625958692129643,-1,1,none,none,-1,-1,-1,355470,13520,10:41:31.849341,hand
9,92,hand1,3,gabor,0,0.01893998810188211,3,4,-1,3,0.5280644835515886,-1,0,-1,congruent,miss,q,2,1.2801713693925194,358021,13520,10:41:31.849341,hand
9,93,hand1,3,cue,white,-1,-1,-1,3,4,-1,0.38696428345156164,-1,0,none,none,-1,-1,-1,363272,13520,10:41:31.849341,hand
9,94,hand1,3,cue,black,-1,-1,-1,3,3,-1,0.20368950299098287,-1,1,none,none,-1,-1,-1,366087,13520,10:41:31.849341,hand
9,95,hand1,3,cue,white,-1,-1,-1,4,4,-1,0.26558723046900923,-1,1,none,none,-1,-1,-1,368821,13520,10:41:31.849341,hand
9,96,hand1,3,gabor,90,0.01893998810188211,4,3,-1,3,0.7482788373695257,-1,0,-1,incongruent,FA,c,4,0.9511181749167008,371420,13520,10:41:31.849341,hand
9,97,hand1,3,cue,black,-1,-1,-1,3,3,-1,0.1742290047723145,-1,1,none,none,-1,-1,-1,376572,13520,10:41:31.849341,hand
9,98,hand1,3,cue,black,-1,-1,-1,3,3,-1,0.21804017281328925,-1,1,none,none,-1,-1,-1,379271,13520,10:41:31.849341,hand
9,99,hand1,3,cue,black,-1,-1,-1,3,3,-1,0.24058914084525895,-1,1,none,none,-1,-1,-1,385686,13520,10:41:31.849341,hand
9,100,hand1,3,gabor,90,0.01893998810188211,4,3,-1,4,0.3252662334944034,-1,0,-1,congruent,FA,3,4,1.1802634898481301,388353,13520,10:41:31.849341,hand
9,101,hand1,3,cue,white,-1,-1,-1,4,4,-1,0.2042505200256528,-1,1,none,none,-1,-1,-1,393304,13520,10:41:31.849341,hand
9,102,hand1,3,gabor,90,0.01893998810188211,4,3,-1,4,0.3287183506326983,-1,0,-1,congruent,FA,4,1,1.1207941482198294,398770,13520,10:41:31.849341,hand
9,103,hand1,3,cue,white,-1,-1,-1,4,4,-1,0.3424861156922816,-1,1,none,none,-1,-1,-1,403569,13520,10:41:31.849341,hand
9,104,hand1,3,cue,white,-1,-1,-1,4,4,-1,0.21148575819279358,-1,1,none,none,-1,-1,-1,406236,13520,10:41:31.849341,hand
9,105,hand1,3,gabor,0,0.01893998810188211,3,4,-1,4,0.27803673989592426,-1,0,-1,incongruent,miss,c,3,1.353295197487114,408870,13520,10:41:31.849341,hand
9,106,hand1,3,gabor,0,0.01893998810188211,4,4,-1,3,0.6901884226203947,-1,1,-1,incongruent,hit,c,2,1.8818968903678979,413853,13520,10:41:31.849341,hand
9,107,hand1,3,gabor,90,0.01893998810188211,3,3,-1,4,0.5015860923072069,-1,1,-1,incongruent,CR,3,3,1.1935493408914226,419769,13520,10:41:31.849341,hand
9,108,hand1,3,cue,black,-1,-1,-1,3,3,-1,0.19830857780061706,-1,1,none,none,-1,-1,-1,424785,13520,10:41:31.849341,hand
9,109,hand1,4,cue,black,-1,-1,-1,4,3,-1,0.3147543640097865,-1,0,none,none,-1,-1,-1,434818,13520,10:41:31.849341,hand
9,110,hand1,4,gabor,90,0.01893998810188211,4,3,-1,4,0.4176236147850432,-1,0,-1,congruent,FA,3,2,0.04742302719569125,437585,13520,10:41:31.849341,hand
9,111,hand1,4,cue,black,-1,-1,-1,3,3,-1,0.26842802719738756,-1,1,none,none,-1,-1,-1,441301,13520,10:41:31.849341,hand
9,112,hand1,4,gabor,90,0.01893998810188211,3,3,-1,4,0.43926443409282,-1,1,-1,incongruent,CR,c,4,1.4792456336858777,444002,13520,10:41:31.849341,hand
9,113,hand1,4,cue,white,-1,-1,-1,4,4,-1,0.3059654811327164,-1,1,none,none,-1,-1,-1,449353,13520,10:41:31.849341,hand
9,114,hand1,4,gabor,90,0.01893998810188211,3,3,-1,3,0.5787268945268806,-1,1,-1,congruent,CR,c,4,1.6227331321451857,452085,13520,10:41:31.849341,hand
9,115,hand1,4,cue,black,-1,-1,-1,3,3,-1,0.49649585150746134,-1,1,none,none,-1,-1,-1,457618,13520,10:41:31.849341,hand
9,116,hand1,4,cue,black,-1,-1,-1,3,3,-1,0.2302220375631805,-1,1,none,none,-1,-1,-1,460652,13520,10:41:31.849341,hand
9,117,hand1,4,cue,white,-1,-1,-1,4,4,-1,0.22017518630491395,-1,1,none,none,-1,-1,-1,463218,13520,10:41:31.849341,hand
9,118,hand1,4,cue,black,-1,-1,-1,3,3,-1,0.21807204441711292,-1,1,none,none,-1,-1,-1,465768,13520,10:41:31.849341,hand
9,119,hand1,4,cue,white,-1,-1,-1,4,4,-1,0.28688514203395243,-1,1,none,none,-1,-1,-1,468417,13520,10:41:31.849341,hand
9,120,hand1,4,cue,white,-1,-1,-1,4,4,-1,0.2277421963526649,-1,1,none,none,-1,-1,-1,471235,13520,10:41:31.849341,hand
9,121,hand1,4,cue,white,-1,-1,-1,4,4,-1,0.3666052402295463,-1,1,none,none,-1,-1,-1,473784,13520,10:41:31.849341,hand
9,122,hand1,4,gabor,0,0.01893998810188211,4,4,-1,4,0.285412904313489,-1,1,-1,congruent,hit,3,4,2.4162903833384917,476684,13520,10:41:31.849341,hand
9,123,hand1,4,cue,white,-1,-1,-1,4,4,-1,0.42408087861167587,-1,1,none,none,-1,-1,-1,482818,13520,10:41:31.849341,hand
9,124,hand1,4,gabor,0,0.01893998810188211,3,4,-1,3,0.3897812724758296,-1,0,-1,congruent,miss,c,3,1.0078181429298638,485667,13520,10:41:31.849341,hand
9,125,hand1,4,gabor,90,0.01893998810188211,3,3,-1,4,0.25355013192165643,-1,1,-1,incongruent,CR,4,4,1.0105502690080357,490400,13520,10:41:31.849341,hand
9,126,hand1,4,gabor,90,0.01893998810188211,3,3,-1,3,0.560318931080019,-1,1,-1,congruent,CR,q,4,0.8562460088492116,495100,13520,10:41:31.849341,hand
9,127,hand1,4,cue,black,-1,-1,-1,3,3,-1,0.2501060786830749,-1,1,none,none,-1,-1,-1,499850,13520,10:41:31.849341,hand
9,128,hand1,4,cue,black,-1,-1,-1,3,3,-1,0.23493788301129825,-1,1,none,none,-1,-1,-1,502533,13520,10:41:31.849341,hand
9,129,hand1,4,gabor,0,0.01893998810188211,3,4,-1,3,0.37862889894358887,-1,0,-1,congruent,miss,4,4,1.1966612382539097,505099,13520,10:41:31.849341,hand
9,130,hand1,4,cue,white,-1,-1,-1,4,4,-1,0.21528961496414922,-1,1,none,none,-1,-1,-1,512749,13520,10:41:31.849341,hand
9,131,hand1,4,cue,white,-1,-1,-1,4,4,-1,0.22600845787883372,-1,1,none,none,-1,-1,-1,515500,13520,10:41:31.849341,hand
9,132,hand1,4,cue,black,-1,-1,-1,3,3,-1,0.20206443516781292,-1,1,none,none,-1,-1,-1,518049,13520,10:41:31.849341,hand
9,133,hand1,4,cue,white,-1,-1,-1,4,4,-1,0.19986913442471632,-1,1,none,none,-1,-1,-1,520682,13520,10:41:31.849341,hand
9,134,hand1,4,gabor,0,0.01893998810188211,4,4,-1,3,0.27574928029707735,-1,1,-1,incongruent,hit,3,3,1.0586905992977336,523215,13520,10:41:31.849341,hand
9,135,hand1,4,cue,black,-1,-1,-1,3,3,-1,0.401469703352177,-1,1,none,none,-1,-1,-1,527983,13520,10:41:31.849341,hand
9,136,hand1,4,cue,black,-1,-1,-1,4,3,-1,0.3534042521328047,-1,0,none,none,-1,-1,-1,530815,13520,10:41:31.849341,hand
9,137,hand1,4,gabor,0,0.01893998810188211,3,4,-1,4,0.4311279591152015,-1,0,-1,incongruent,miss,4,2,2.252071750277537,533700,13520,10:41:31.849341,hand
9,138,hand1,4,cue,white,-1,-1,-1,4,4,-1,0.3028977432213651,-1,1,none,none,-1,-1,-1,539632,13520,10:41:31.849341,hand
9,139,hand1,4,cue,black,-1,-1,-1,3,3,-1,0.30764008434061907,-1,1,none,none,-1,-1,-1,542265,13520,10:41:31.849341,hand
9,140,hand1,4,gabor,90,0.01893998810188211,4,3,-1,3,0.20646540452526096,-1,0,-1,incongruent,FA,3,4,1.5275180583357724,544998,13520,10:41:31.849341,hand
9,141,hand1,4,cue,black,-1,-1,-1,3,3,-1,0.5503123993212284,-1,1,none,none,-1,-1,-1,550166,13520,10:41:31.849341,hand
9,142,hand1,4,cue,white,-1,-1,-1,4,4,-1,0.2570947919111859,-1,1,none,none,-1,-1,-1,553249,13520,10:41:31.849341,hand
9,143,hand1,4,gabor,0,0.01893998810188211,3,4,-1,4,0.20287044116048492,-1,0,-1,incongruent,miss,c,2,2.4027933349179875,556032,13520,10:41:31.849341,hand
9,144,hand1,4,cue,white,-1,-1,-1,4,4,-1,0.412509182285703,-1,1,none,none,-1,-1,-1,562082,13520,10:41:31.849341,hand
9,145,hand1,5,cue,black,-1,-1,-1,3,3,-1,0.19601919822525815,-1,1,none,none,-1,-1,-1,572015,13520,10:41:31.849341,hand
9,146,hand1,5,cue,black,-1,-1,-1,3,3,-1,0.1797984716222345,-1,1,none,none,-1,-1,-1,574765,13520,10:41:31.849341,hand
9,147,hand1,5,cue,white,-1,-1,-1,4,4,-1,0.17569087462197785,-1,1,none,none,-1,-1,-1,577381,13520,10:41:31.849341,hand
9,148,hand1,5,gabor,90,0.01893998810188211,4,3,-1,3,0.23240965840204808,-1,0,-1,incongruent,FA,3,4,1.0034240854865857,579980,13520,10:41:31.849341,hand
9,149,hand1,5,cue,black,-1,-1,-1,3,3,-1,0.2112215694733095,-1,1,none,none,-1,-1,-1,584464,13520,10:41:31.849341,hand
9,150,hand1,5,cue,black,-1,-1,-1,3,3,-1,0.267143947140994,-1,1,none,none,-1,-1,-1,587215,13520,10:41:31.849341,hand
9,151,hand1,5,cue,white,-1,-1,-1,4,4,-1,0.25503734545645784,-1,1,none,none,-1,-1,-1,589913,13520,10:41:31.849341,hand
9,152,hand1,5,cue,white,-1,-1,-1,4,4,-1,0.46677884447399265,-1,1,none,none,-1,-1,-1,592497,13520,10:41:31.849341,hand
9,153,hand1,5,cue,white,-1,-1,-1,4,4,-1,0.4246180879417807,-1,1,none,none,-1,-1,-1,595296,13520,10:41:31.849341,hand
9,154,hand1,5,cue,white,-1,-1,-1,4,4,-1,0.18453082886526317,-1,1,none,none,-1,-1,-1,598046,13520,10:41:31.849341,hand
9,155,hand1,5,gabor,0,0.01893998810188211,4,4,-1,3,0.4363261025750944,-1,1,-1,incongruent,hit,q,2,1.8852971681503732,600764,13520,10:41:31.849341,hand
9,156,hand1,5,cue,white,-1,-1,-1,4,4,-1,0.252544064412632,-1,1,none,none,-1,-1,-1,612196,13520,10:41:31.849341,hand
9,157,hand1,5,gabor,90,0.01893998810188211,3,3,-1,4,0.47647664406622425,-1,1,-1,incongruent,CR,4,4,1.4704171993003001,614879,13520,10:41:31.849341,hand
9,158,hand1,5,cue,white,-1,-1,-1,4,4,-1,0.36118169156816293,-1,1,none,none,-1,-1,-1,620163,13520,10:41:31.849341,hand
9,159,hand1,5,cue,white,-1,-1,-1,4,4,-1,0.23583911982132122,-1,1,none,none,-1,-1,-1,626629,13520,10:41:31.849341,hand
9,160,hand1,5,gabor,0,0.01893998810188211,3,4,-1,4,0.46566103435270634,-1,0,-1,incongruent,miss,3,2,1.5205358730268017,629295,13520,10:41:31.849341,hand
9,161,hand1,5,gabor,90,0.01893998810188211,3,3,-1,3,0.38893033904105323,-1,1,-1,congruent,CR,c,3,0.8193152673816257,634512,13520,10:41:31.849341,hand
9,162,hand1,5,cue,white,-1,-1,-1,4,4,-1,0.24610331238136496,-1,1,none,none,-1,-1,-1,639045,13520,10:41:31.849341,hand
9,163,hand1,5,cue,black,-1,-1,-1,3,3,-1,0.23210591817269233,-1,1,none,none,-1,-1,-1,641830,13520,10:41:31.849341,hand
9,164,hand1,5,cue,black,-1,-1,-1,3,3,-1,0.3838539220696475,-1,1,none,none,-1,-1,-1,644596,13520,10:41:31.849341,hand
9,165,hand1,5,gabor,90,0.01893998810188211,3,3,-1,3,0.19846102390783926,-1,1,-1,congruent,CR,4,4,1.0425946711447978,647311,13520,10:41:31.849341,hand
9,166,hand1,5,cue,black,-1,-1,-1,3,3,-1,0.2712930156258153,-1,1,none,none,-1,-1,-1,651995,13520,10:41:31.849341,hand
9,167,hand1,5,cue,black,-1,-1,-1,3,3,-1,0.19621925974161059,-1,1,none,none,-1,-1,-1,654695,13520,10:41:31.849341,hand
9,168,hand1,5,cue,black,-1,-1,-1,3,3,-1,0.4351230455122277,-1,1,none,none,-1,-1,-1,657329,13520,10:41:31.849341,hand
9,169,hand1,5,cue,black,-1,-1,-1,4,3,-1,0.34182833185968775,-1,0,none,none,-1,-1,-1,660194,13520,10:41:31.849341,hand
9,170,hand1,5,cue,black,-1,-1,-1,3,3,-1,0.21872982825016152,-1,1,none,none,-1,-1,-1,663062,13520,10:41:31.849341,hand
9,171,hand1,5,gabor,0,0.01893998810188211,4,4,-1,3,0.30844225038117656,-1,1,-1,incongruent,hit,4,3,1.0465348462234942,665812,13520,10:41:31.849341,hand
9,172,hand1,5,gabor,90,0.01893998810188211,3,3,-1,4,0.4053388393131172,-1,1,-1,incongruent,CR,3,4,0.8452913928622365,670494,13520,10:41:31.849341,hand
9,173,hand1,5,gabor,0,0.01893998810188211,3,4,-1,4,0.5560823116820757,-1,0,-1,incongruent,miss,4,3,1.2140500783543757,675179,13520,10:41:31.849341,hand
9,174,hand1,5,cue,white,-1,-1,-1,4,4,-1,0.6168245975059108,-1,1,none,none,-1,-1,-1,680194,13520,10:41:31.849341,hand
9,175,hand1,5,cue,white,-1,-1,-1,4,4,-1,0.2676285491238559,-1,1,none,none,-1,-1,-1,683243,13520,10:41:31.849341,hand
9,176,hand1,5,gabor,90,0.01893998810188211,3,3,-1,4,0.4413456882521132,-1,1,-1,incongruent,CR,c,4,0.724363998296667,685843,13520,10:41:31.849341,hand
9,177,hand1,5,gabor,0,0.01893998810188211,3,4,-1,4,0.30626806937561923,-1,0,-1,incongruent,miss,4,1,1.052208759776022,690344,13520,10:41:31.849341,hand
9,178,hand1,5,cue,black,-1,-1,-1,3,3,-1,0.4818660171517877,-1,1,none,none,-1,-1,-1,695043,13520,10:41:31.849341,hand
9,179,hand1,5,cue,white,-1,-1,-1,4,4,-1,0.48284290102265004,-1,1,none,none,-1,-1,-1,697860,13520,10:41:31.849341,hand
9,180,hand1,5,gabor,0,0.01893998810188211,4,4,-1,3,0.30651305833407605,-1,1,-1,incongruent,hit,4,3,1.4715496012399853,700676,13520,10:41:31.849341,hand
9,181,hand1,6,cue,black,-1,-1,-1,3,3,-1,0.24523471516567952,-1,1,none,none,-1,-1,-1,710326,13520,10:41:31.849341,hand
9,182,hand1,6,cue,white,-1,-1,-1,4,4,-1,0.22492520732885168,-1,1,none,none,-1,-1,-1,713026,13520,10:41:31.849341,hand
9,183,hand1,6,cue,black,-1,-1,-1,3,3,-1,0.22469097023667928,-1,1,none,none,-1,-1,-1,715676,13520,10:41:31.849341,hand
9,184,hand1,6,gabor,90,0.01893998810188211,4,3,-1,3,0.2605169574212596,-1,0,-1,incongruent,FA,4,2,1.5295363372770225,718326,13520,10:41:31.849341,hand
9,185,hand1,6,gabor,0,0.01893998810188211,4,4,-1,4,0.4832084644835959,-1,1,-1,congruent,hit,c,1,1.0962549328987734,723543,13520,10:41:31.849341,hand
9,186,hand1,6,cue,black,-1,-1,-1,3,3,-1,0.1958567682422654,-1,1,none,none,-1,-1,-1,732225,13520,10:41:31.849341,hand
9,187,hand1,6,cue,black,-1,-1,-1,3,3,-1,0.2686714801752714,-1,1,none,none,-1,-1,-1,734859,13520,10:41:31.849341,hand
9,188,hand1,6,cue,white,-1,-1,-1,4,4,-1,0.16947283982517547,-1,1,none,none,-1,-1,-1,737558,13520,10:41:31.849341,hand
9,189,hand1,6,gabor,90,0.01893998810188211,4,3,-1,4,0.23529768654407235,-1,0,-1,congruent,FA,4,2,1.048357287595536,740259,13520,10:41:31.849341,hand
9,190,hand1,6,cue,white,-1,-1,-1,4,4,-1,0.19513408921511655,-1,1,none,none,-1,-1,-1,744792,13520,10:41:31.849341,hand
9,191,hand1,6,gabor,0,0.01893998810188211,4,4,-1,3,0.24296568733780077,-1,1,-1,incongruent,hit,q,4,1.1788377155507987,747526,13520,10:41:31.849341,hand
9,192,hand1,6,cue,black,-1,-1,-1,3,3,-1,0.26167124708945266,-1,1,none,none,-1,-1,-1,752275,13520,10:41:31.849341,hand
9,193,hand1,6,cue,white,-1,-1,-1,4,4,-1,0.2435117285585875,-1,1,none,none,-1,-1,-1,754858,13520,10:41:31.849341,hand
9,194,hand1,6,cue,white,-1,-1,-1,4,4,-1,0.24318149265855027,-1,1,none,none,-1,-1,-1,757625,13520,10:41:31.849341,hand
9,195,hand1,6,cue,black,-1,-1,-1,3,3,-1,0.28134101887008,-1,1,none,none,-1,-1,-1,760291,13520,10:41:31.849341,hand
9,196,hand1,6,cue,white,-1,-1,-1,4,4,-1,0.23219154910975703,-1,1,none,none,-1,-1,-1,762908,13520,10:41:31.849341,hand
9,197,hand1,6,gabor,90,0.01893998810188211,3,3,-1,3,0.38350525439864214,-1,1,-1,congruent,CR,c,4,0.7756154579587928,768307,13520,10:41:31.849341,hand
9,198,hand1,6,cue,black,-1,-1,-1,3,3,-1,0.447549899220121,-1,1,none,none,-1,-1,-1,772891,13520,10:41:31.849341,hand
9,199,hand1,6,cue,white,-1,-1,-1,4,4,-1,0.21924130989964397,-1,1,none,none,-1,-1,-1,775673,13520,10:41:31.849341,hand
9,200,hand1,6,cue,black,-1,-1,-1,3,3,-1,0.12626761626097505,-1,1,none,none,-1,-1,-1,778324,13520,10:41:31.849341,hand
9,201,hand1,6,gabor,0,0.01893998810188211,4,4,-1,4,0.21713509605069703,-1,1,-1,congruent,hit,3,4,1.2498983372620387,780975,13520,10:41:31.849341,hand
9,202,hand1,6,gabor,0,0.01893998810188211,3,4,-1,3,0.3715526348023559,-1,0,-1,congruent,miss,c,2,1.6765239522783304,785790,13520,10:41:31.849341,hand
9,203,hand1,6,cue,white,-1,-1,-1,4,4,-1,0.5963741634182043,-1,1,none,none,-1,-1,-1,791274,13520,10:41:31.849341,hand
9,204,hand1,6,cue,black,-1,-1,-1,3,3,-1,0.3052804336380177,-1,1,none,none,-1,-1,-1,794208,13520,10:41:31.849341,hand
9,205,hand1,6,cue,white,-1,-1,-1,4,4,-1,0.22622771915666817,-1,1,none,none,-1,-1,-1,797041,13520,10:41:31.849341,hand
9,206,hand1,6,cue,black,-1,-1,-1,3,3,-1,0.21096314068154243,-1,1,none,none,-1,-1,-1,799590,13520,10:41:31.849341,hand
9,207,hand1,6,cue,white,-1,-1,-1,4,4,-1,0.17888110701233018,-1,1,none,none,-1,-1,-1,802123,13520,10:41:31.849341,hand
9,208,hand1,6,gabor,0,0.01893998810188211,3,4,-1,4,0.19657829528387083,-1,0,-1,incongruent,miss,3,3,1.6635464494074768,804740,13520,10:41:31.849341,hand
9,209,hand1,6,gabor,90,0.01893998810188211,3,3,-1,4,0.4042010614393803,-1,1,-1,incongruent,CR,q,4,1.0172897693305458,809856,13520,10:41:31.849341,hand
9,210,hand1,6,cue,black,-1,-1,-1,3,3,-1,0.4500704439255969,-1,1,none,none,-1,-1,-1,814724,13520,10:41:31.849341,hand
9,211,hand1,6,cue,white,-1,-1,-1,4,4,-1,0.31790581288123576,-1,1,none,none,-1,-1,-1,817506,13520,10:41:31.849341,hand
9,212,hand1,6,cue,black,-1,-1,-1,3,3,-1,0.39673734610914835,-1,1,none,none,-1,-1,-1,820256,13520,10:41:31.849341,hand
9,213,hand1,6,gabor,0,0.01893998810188211,4,4,-1,3,0.25856587764610595,-1,1,-1,incongruent,hit,4,2,1.115543013417664,822989,13520,10:41:31.849341,hand
9,214,hand1,6,gabor,90,0.01893998810188211,3,3,-1,3,0.1921834698496241,-1,1,-1,congruent,CR,q,1,0.82829960383242,827605,13520,10:41:31.849341,hand
9,215,hand1,6,gabor,90,0.01893998810188211,3,3,-1,4,0.41820229560062216,-1,1,-1,incongruent,CR,q,4,0.7490690995582554,831956,13520,10:41:31.849341,hand
9,216,hand1,6,cue,white,-1,-1,-1,4,4,-1,0.23701491322299262,-1,1,none,none,-1,-1,-1,836372,13520,10:41:31.849341,hand
9,217,hand1,7,cue,white,-1,-1,-1,4,4,-1,0.22046241473890404,-1,1,none,none,-1,-1,-1,842655,13520,10:41:31.849341,hand
9,218,hand1,7,gabor,90,0.01893998810188211,4,3,-1,3,0.28725876939506634,-1,0,-1,incongruent,FA,q,1,2.0083342325224294,845221,13520,10:41:31.849341,hand
9,219,hand1,7,cue,black,-1,-1,-1,3,3,-1,0.42196736885307473,-1,1,none,none,-1,-1,-1,850855,13520,10:41:31.849341,hand
9,220,hand1,7,gabor,90,0.01893998810188211,3,3,-1,3,0.22087981755657893,-1,1,-1,congruent,CR,c,3,0.6517935073316039,853806,13520,10:41:31.849341,hand
9,221,hand1,7,cue,white,-1,-1,-1,4,4,-1,0.18071775620819608,-1,1,none,none,-1,-1,-1,858021,13520,10:41:31.849341,hand
9,222,hand1,7,cue,black,-1,-1,-1,3,3,-1,0.21747185986941986,-1,1,none,none,-1,-1,-1,860739,13520,10:41:31.849341,hand
9,223,hand1,7,gabor,90,0.01893998810188211,4,3,-1,4,0.1622395216345467,-1,0,-1,congruent,FA,c,1,1.6683145182068984,863287,13520,10:41:31.849341,hand
9,224,hand1,7,cue,white,-1,-1,-1,4,4,-1,0.1798783426306727,-1,1,none,none,-1,-1,-1,871287,13520,10:41:31.849341,hand
9,225,hand1,7,cue,black,-1,-1,-1,3,3,-1,0.20465025906241863,-1,1,none,none,-1,-1,-1,873804,13520,10:41:31.849341,hand
9,226,hand1,7,cue,black,-1,-1,-1,3,3,-1,0.16955232683812937,-1,1,none,none,-1,-1,-1,876337,13520,10:41:31.849341,hand
9,227,hand1,7,cue,white,-1,-1,-1,4,4,-1,0.15834696196407094,-1,1,none,none,-1,-1,-1,878937,13520,10:41:31.849341,hand
9,228,hand1,7,cue,white,-1,-1,-1,4,4,-1,0.33222960303737636,-1,1,none,none,-1,-1,-1,881421,13520,10:41:31.849341,hand
9,229,hand1,7,gabor,0,0.01893998810188211,3,4,-1,4,0.3732552696624225,-1,0,-1,incongruent,miss,3,2,2.2029994635586263,884087,13520,10:41:31.849341,hand
9,230,hand1,7,cue,white,-1,-1,-1,3,4,-1,0.2346994219719818,-1,0,none,none,-1,-1,-1,890003,13520,10:41:31.849341,hand
9,231,hand1,7,cue,black,-1,-1,-1,3,3,-1,0.17463719170473269,-1,1,none,none,-1,-1,-1,892570,13520,10:41:31.849341,hand
9,232,hand1,7,gabor,90,0.01893998810188211,4,3,-1,4,0.19627109909788487,-1,0,-1,congruent,FA,c,2,1.5873733151729539,895070,13520,10:41:31.849341,hand
9,233,hand1,7,cue,black,-1,-1,-1,3,3,-1,0.25522012718693077,-1,1,none,none,-1,-1,-1,900305,13520,10:41:31.849341,hand
9,234,hand1,7,cue,black,-1,-1,-1,3,3,-1,0.24210784198930924,-1,1,none,none,-1,-1,-1,902887,13520,10:41:31.849341,hand
9,235,hand1,7,cue,white,-1,-1,-1,4,4,-1,0.22397251515758398,-1,1,none,none,-1,-1,-1,905453,13520,10:41:31.849341,hand
9,236,hand1,7,cue,white,-1,-1,-1,4,4,-1,0.16183248668767192,-1,1,none,none,-1,-1,-1,908204,13520,10:41:31.849341,hand
9,237,hand1,7,cue,white,-1,-1,-1,4,4,-1,0.2455806948701138,-1,1,none,none,-1,-1,-1,910786,13520,10:41:31.849341,hand
9,238,hand1,7,gabor,0,0.01893998810188211,3,4,-1,3,0.26628802176810495,-1,0,-1,congruent,miss,4,1,1.0353052896493864,913369,13520,10:41:31.849341,hand
9,239,hand1,7,gabor,0,0.01893998810188211,3,4,-1,4,0.26218695268698866,-1,0,-1,incongruent,miss,4,4,0.9820570547794887,918121,13520,10:41:31.849341,hand
9,240,hand1,7,cue,black,-1,-1,-1,3,3,-1,0.23107642695504182,-1,1,none,none,-1,-1,-1,922603,13520,10:41:31.849341,hand
9,241,hand1,7,gabor,90,0.01893998810188211,4,3,-1,4,0.2596882957100206,-1,0,-1,congruent,FA,4,3,0.890718412840215,925169,13520,10:41:31.849341,hand
9,242,hand1,7,cue,white,-1,-1,-1,4,4,-1,0.24342801759758004,-1,1,none,none,-1,-1,-1,929753,13520,10:41:31.849341,hand
9,243,hand1,7,gabor,90,0.01893998810188211,3,3,-1,3,0.3783443584766246,-1,1,-1,congruent,CR,4,4,0.9643041871995592,932418,13520,10:41:31.849341,hand
9,244,hand1,7,gabor,0,0.01893998810188211,4,4,-1,4,0.3051994106440361,-1,1,-1,congruent,hit,4,3,1.0930512606755656,937119,13520,10:41:31.849341,hand
9,245,hand1,7,cue,black,-1,-1,-1,3,3,-1,0.2938216319107596,-1,1,none,none,-1,-1,-1,941752,13520,10:41:31.849341,hand
9,246,hand1,7,cue,black,-1,-1,-1,3,3,-1,0.19570048218292868,-1,1,none,none,-1,-1,-1,944468,13520,10:41:31.849341,hand
9,247,hand1,7,gabor,0,0.01893998810188211,4,4,-1,3,0.33656145325312536,-1,1,-1,incongruent,hit,c,4,0.9464219132255494,947002,13520,10:41:31.849341,hand
9,248,hand1,7,cue,black,-1,-1,-1,3,3,-1,0.7082358145439684,-1,1,none,none,-1,-1,-1,951720,13520,10:41:31.849341,hand
9,249,hand1,7,gabor,0,0.01893998810188211,4,4,-1,3,0.38908124916724773,-1,1,-1,incongruent,hit,3,3,1.2160422456195192,954852,13520,10:41:31.849341,hand
9,250,hand1,7,cue,white,-1,-1,-1,4,4,-1,0.37582803771920226,-1,1,none,none,-1,-1,-1,959801,13520,10:41:31.849341,hand
9,251,hand1,7,cue,white,-1,-1,-1,4,4,-1,0.26461917848791927,-1,1,none,none,-1,-1,-1,962702,13520,10:41:31.849341,hand
9,252,hand1,7,cue,black,-1,-1,-1,3,3,-1,0.19760817049700563,-1,1,none,none,-1,-1,-1,965401,13520,10:41:31.849341,hand
9,253,hand1,8,gabor,90,0.01893998810188211,3,3,-1,4,0.309591548111257,-1,1,-1,incongruent,CR,q,3,0.760474141953182,981317,13520,10:41:31.849341,hand
9,254,hand1,8,cue,white,-1,-1,-1,4,4,-1,0.17933998131456974,-1,1,none,none,-1,-1,-1,985766,13520,10:41:31.849341,hand
9,255,hand1,8,cue,black,-1,-1,-1,3,3,-1,0.18627147925326426,-1,1,none,none,-1,-1,-1,988384,13520,10:41:31.849341,hand
9,256,hand1,8,cue,black,-1,-1,-1,3,3,-1,0.15187165036149963,-1,1,none,none,-1,-1,-1,993933,13520,10:41:31.849341,hand
9,257,hand1,8,cue,white,-1,-1,-1,4,4,-1,0.25783974266187215,-1,1,none,none,-1,-1,-1,996517,13520,10:41:31.849341,hand
9,258,hand1,8,gabor,90,0.01893998810188211,3,3,-1,4,0.17335042368131326,-1,1,-1,incongruent,CR,4,4,0.9594504874626182,999301,13520,10:41:31.849341,hand
9,259,hand1,8,cue,black,-1,-1,-1,3,3,-1,0.17528921560915478,-1,1,none,none,-1,-1,-1,1003869,13520,10:41:31.849341,hand
9,260,hand1,8,cue,black,-1,-1,-1,3,3,-1,0.1693015779515008,-1,1,none,none,-1,-1,-1,1006467,13520,10:41:31.849341,hand
9,261,hand1,8,cue,black,-1,-1,-1,3,3,-1,0.17286198174542733,-1,1,none,none,-1,-1,-1,1012000,13520,10:41:31.849341,hand
9,262,hand1,8,gabor,0,0.01893998810188211,4,4,-1,4,0.3415445593827826,-1,1,-1,congruent,hit,q,3,1.3765061732992763,1014700,13520,10:41:31.849341,hand
9,263,hand1,8,cue,white,-1,-1,-1,4,4,-1,0.31737129151770205,-1,1,none,none,-1,-1,-1,1019749,13520,10:41:31.849341,hand
9,264,hand1,8,cue,black,-1,-1,-1,3,3,-1,0.4513671958247869,-1,1,none,none,-1,-1,-1,1022400,13520,10:41:31.849341,hand
9,265,hand1,8,cue,white,-1,-1,-1,4,4,-1,0.4300324207174526,-1,1,none,none,-1,-1,-1,1025183,13520,10:41:31.849341,hand
9,266,hand1,8,cue,white,-1,-1,-1,4,4,-1,0.38788433602803707,-1,1,none,none,-1,-1,-1,1027949,13520,10:41:31.849341,hand
9,267,hand1,8,cue,black,-1,-1,-1,3,3,-1,0.1747139907511155,-1,1,none,none,-1,-1,-1,1030666,13520,10:41:31.849341,hand
9,268,hand1,8,cue,white,-1,-1,-1,4,4,-1,0.15958611457881489,-1,1,none,none,-1,-1,-1,1033367,13520,10:41:31.849341,hand
9,269,hand1,8,gabor,90,0.01893998810188211,4,3,-1,3,0.32736323145809365,-1,0,-1,incongruent,FA,4,1,1.0833707408687587,1036049,13520,10:41:31.849341,hand
9,270,hand1,8,cue,black,-1,-1,-1,3,3,-1,0.23824984189013776,-1,1,none,none,-1,-1,-1,1040799,13520,10:41:31.849341,hand
9,271,hand1,8,cue,black,-1,-1,-1,3,3,-1,0.6467140183990523,-1,1,none,none,-1,-1,-1,1046298,13520,10:41:31.849341,hand
9,272,hand1,8,gabor,0,0.01893998810188211,4,4,-1,3,0.29644892728993,-1,1,-1,incongruent,hit,q,4,0.9595487902420246,1049382,13520,10:41:31.849341,hand
9,273,hand1,8,gabor,90,0.01893998810188211,3,3,-1,4,0.2034195543428723,-1,1,-1,incongruent,CR,4,4,0.9162844314128051,1054082,13520,10:41:31.849341,hand
9,274,hand1,8,cue,black,-1,-1,-1,3,3,-1,0.40018754327138595,-1,1,none,none,-1,-1,-1,1058548,13520,10:41:31.849341,hand
9,275,hand1,8,cue,white,-1,-1,-1,4,4,-1,0.17777827270492708,-1,1,none,none,-1,-1,-1,1064214,13520,10:41:31.849341,hand
9,276,hand1,8,gabor,0,0.01893998810188211,4,4,-1,3,0.16948051972985922,-1,1,-1,incongruent,hit,3,4,1.042569327459205,1066932,13520,10:41:31.849341,hand
9,277,hand1,8,gabor,0,0.01893998810188211,3,4,-1,4,0.42516566514314036,-1,0,-1,incongruent,miss,q,3,1.2293023689817346,1071481,13520,10:41:31.849341,hand
9,278,hand1,8,cue,white,-1,-1,-1,4,4,-1,0.39420873750395913,-1,1,none,none,-1,-1,-1,1076531,13520,10:41:31.849341,hand
9,279,hand1,8,gabor,90,0.01893998810188211,4,3,-1,3,0.2068186801388947,-1,0,-1,incongruent,FA,3,3,1.0938803063822888,1079365,13520,10:41:31.849341,hand
9,280,hand1,8,gabor,90,0.01893998810188211,4,3,-1,3,0.2995327930007079,-1,0,-1,incongruent,FA,4,1,0.8436071897731381,1084098,13520,10:41:31.849341,hand
9,281,hand1,8,gabor,0,0.01893998810188211,4,4,-1,3,0.7541735481813703,-1,1,-1,incongruent,hit,4,2,1.6663350227840965,1088681,13520,10:41:31.849341,hand
9,282,hand1,8,gabor,0,0.01893998810188211,3,4,-1,4,0.18908309234439002,-1,0,-1,incongruent,miss,c,2,1.983002451041557,1094548,13520,10:41:31.849341,hand
9,283,hand1,8,cue,white,-1,-1,-1,4,4,-1,0.5058184877575513,-1,1,none,none,-1,-1,-1,1099963,13520,10:41:31.849341,hand
9,284,hand1,8,cue,black,-1,-1,-1,3,3,-1,0.23869988430260491,-1,1,none,none,-1,-1,-1,1102896,13520,10:41:31.849341,hand
9,285,hand1,8,cue,white,-1,-1,-1,4,4,-1,0.2114404467552049,-1,1,none,none,-1,-1,-1,1105463,13520,10:41:31.849341,hand
9,286,hand1,8,cue,black,-1,-1,-1,3,3,-1,0.274331185903975,-1,1,none,none,-1,-1,-1,1108013,13520,10:41:31.849341,hand
9,287,hand1,8,cue,white,-1,-1,-1,4,4,-1,0.2931841998247364,-1,1,none,none,-1,-1,-1,1110815,13520,10:41:31.849341,hand
9,288,hand1,8,cue,white,-1,-1,-1,4,4,-1,0.15916141585194055,-1,1,none,none,-1,-1,-1,1113430,13520,10:41:31.849341,hand
9,289,hand1,9,cue,white,-1,-1,-1,4,4,-1,0.4972995535285918,-1,1,none,none,-1,-1,-1,1124930,13520,10:41:31.849341,hand
9,290,hand1,9,gabor,0,0.01893998810188211,3,4,-1,4,0.317044127580175,-1,0,-1,incongruent,miss,c,2,1.9931744847453956,1127796,13520,10:41:31.849341,hand
9,291,hand1,9,cue,black,-1,-1,-1,3,3,-1,0.19886575488271774,-1,1,none,none,-1,-1,-1,1133547,13520,10:41:31.849341,hand
9,292,hand1,9,cue,white,-1,-1,-1,4,4,-1,0.2147454937198745,-1,1,none,none,-1,-1,-1,1136280,13520,10:41:31.849341,hand
9,293,hand1,9,cue,white,-1,-1,-1,4,4,-1,0.2595754011117606,-1,1,none,none,-1,-1,-1,1138928,13520,10:41:31.849341,hand
9,294,hand1,9,cue,black,-1,-1,-1,4,3,-1,0.2934414766309601,-1,0,none,none,-1,-1,-1,1141512,13520,10:41:31.849341,hand
9,295,hand1,9,cue,black,-1,-1,-1,3,3,-1,0.16421095315672574,-1,1,none,none,-1,-1,-1,1144330,13520,10:41:31.849341,hand
9,296,hand1,9,cue,black,-1,-1,-1,3,3,-1,0.16216656253982364,-1,1,none,none,-1,-1,-1,1146829,13520,10:41:31.849341,hand
9,297,hand1,9,cue,white,-1,-1,-1,4,4,-1,0.17900782543893,-1,1,none,none,-1,-1,-1,1149329,13520,10:41:31.849341,hand
9,298,hand1,9,gabor,0,0.01893998810188211,4,4,-1,3,0.31860046025667543,-1,1,-1,incongruent,hit,4,4,0.8907356926256398,1151945,13520,10:41:31.849341,hand
9,299,hand1,9,gabor,90,0.01893998810188211,4,3,-1,4,0.18437723077204282,-1,0,-1,congruent,FA,3,1,0.7493121685402002,1156495,13520,10:41:31.849341,hand
9,300,hand1,9,cue,white,-1,-1,-1,4,4,-1,0.20722110714268638,-1,1,none,none,-1,-1,-1,1160762,13520,10:41:31.849341,hand
9,301,hand1,9,cue,black,-1,-1,-1,3,3,-1,0.18312271834838612,-1,1,none,none,-1,-1,-1,1163295,13520,10:41:31.849341,hand
9,302,hand1,9,cue,black,-1,-1,-1,3,3,-1,0.20405276248084192,-1,1,none,none,-1,-1,-1,1165812,13520,10:41:31.849341,hand
9,303,hand1,9,cue,white,-1,-1,-1,4,4,-1,0.2225405969361418,-1,1,none,none,-1,-1,-1,1174011,13520,10:41:31.849341,hand
9,304,hand1,9,gabor,0,0.01893998810188211,4,4,-1,4,0.39717241270727754,-1,1,-1,congruent,hit,4,3,1.2392344056656839,1176560,13520,10:41:31.849341,hand
9,305,hand1,9,gabor,90,0.01893998810188211,3,3,-1,3,0.3402167038693733,-1,1,-1,congruent,CR,c,4,0.869078361522952,1181528,13520,10:41:31.849341,hand
9,306,hand1,9,cue,white,-1,-1,-1,4,4,-1,0.20085945812888895,-1,1,none,none,-1,-1,-1,1186077,13520,10:41:31.849341,hand
9,307,hand1,9,gabor,90,0.01893998810188211,3,3,-1,4,0.2037190706241745,-1,1,-1,incongruent,CR,q,4,0.8986824739581607,1188710,13520,10:41:31.849341,hand
9,308,hand1,9,cue,black,-1,-1,-1,3,3,-1,0.26840613946933445,-1,1,none,none,-1,-1,-1,1193261,13520,10:41:31.849341,hand
9,309,hand1,9,cue,white,-1,-1,-1,4,4,-1,0.2173927568514955,-1,1,none,none,-1,-1,-1,1195961,13520,10:41:31.849341,hand
9,310,hand1,9,cue,white,-1,-1,-1,4,4,-1,0.16328014871351115,-1,1,none,none,-1,-1,-1,1198712,13520,10:41:31.849341,hand
9,311,hand1,9,gabor,0,0.01893998810188211,3,4,-1,3,0.31486380265141634,-1,0,-1,congruent,miss,4,1,1.160932017867708,1201311,13520,10:41:31.849341,hand
9,312,hand1,9,gabor,90,0.01893998810188211,3,3,-1,3,0.4735010650106233,-1,1,-1,congruent,CR,c,4,0.6126724570585793,1206026,13520,10:41:31.849341,hand
9,313,hand1,9,cue,black,-1,-1,-1,3,3,-1,0.024573390896875935,-1,1,none,none,-1,-1,-1,1210343,13520,10:41:31.849341,hand
9,314,hand1,9,gabor,0,0.01893998810188211,4,4,-1,4,0.3180033476701283,-1,1,-1,congruent,hit,3,2,1.4223179565001374,1212693,13520,10:41:31.849341,hand
9,315,hand1,9,cue,black,-1,-1,-1,3,3,-1,0.16781858836475294,-1,1,none,none,-1,-1,-1,1221543,13520,10:41:31.849341,hand
9,316,hand1,9,gabor,90,0.01893998810188211,3,3,-1,3,0.23752101893887811,-1,1,-1,congruent,CR,q,4,0.8455916771340526,1224243,13520,10:41:31.849341,hand
9,317,hand1,9,cue,black,-1,-1,-1,3,3,-1,0.400369557011345,-1,1,none,none,-1,-1,-1,1228659,13520,10:41:31.849341,hand
9,318,hand1,9,cue,white,-1,-1,-1,4,4,-1,0.37325565365745206,-1,1,none,none,-1,-1,-1,1231393,13520,10:41:31.849341,hand
9,319,hand1,9,gabor,90,0.01893998810188211,4,3,-1,4,0.26615592740790817,-1,0,-1,congruent,FA,3,2,0.7769494573954034,1234093,13520,10:41:31.849341,hand
9,320,hand1,9,cue,black,-1,-1,-1,3,3,-1,0.1729802522772843,-1,1,none,none,-1,-1,-1,1238476,13520,10:41:31.849341,hand
9,321,hand1,9,cue,black,-1,-1,-1,3,3,-1,0.2947040529543301,-1,1,none,none,-1,-1,-1,1241176,13520,10:41:31.849341,hand
9,322,hand1,9,cue,white,-1,-1,-1,4,4,-1,0.17361960433891,-1,1,none,none,-1,-1,-1,1243993,13520,10:41:31.849341,hand
9,323,hand1,9,cue,white,-1,-1,-1,4,4,-1,0.2124131066789232,-1,1,none,none,-1,-1,-1,1246492,13520,10:41:31.849341,hand
9,324,hand1,9,gabor,0,0.01893998810188211,4,4,-1,3,0.26214087325888613,-1,1,-1,incongruent,hit,3,4,1.1112472587537923,1249143,13520,10:41:31.849341,hand
9,325,hand1,10,gabor,90,0.01893998810188211,4,3,-1,3,0.27555613069534957,-1,0,-1,incongruent,FA,c,1,1.2045581002066683,1259658,13520,10:41:31.849341,hand
9,326,hand1,10,cue,black,-1,-1,-1,3,3,-1,0.15529919180517027,-1,1,none,none,-1,-1,-1,1264592,13520,10:41:31.849341,hand
9,327,hand1,10,cue,white,-1,-1,-1,4,4,-1,0.2623597505412363,-1,1,none,none,-1,-1,-1,1267175,13520,10:41:31.849341,hand
9,328,hand1,10,cue,black,-1,-1,-1,3,3,-1,0.26399710621171835,-1,1,none,none,-1,-1,-1,1269976,13520,10:41:31.849341,hand
9,329,hand1,10,cue,black,-1,-1,-1,3,3,-1,0.21680332417008685,-1,1,none,none,-1,-1,-1,1272675,13520,10:41:31.849341,hand
9,330,hand1,10,cue,white,-1,-1,-1,4,4,-1,0.24980349043971728,-1,1,none,none,-1,-1,-1,1275324,13520,10:41:31.849341,hand
9,331,hand1,10,cue,black,-1,-1,-1,3,3,-1,0.22751563916608575,-1,1,none,none,-1,-1,-1,1278007,13520,10:41:31.849341,hand
9,332,hand1,10,gabor,90,0.01893998810188211,3,3,-1,4,0.16335464378880715,-1,1,-1,incongruent,CR,3,4,1.0483622795341034,1280657,13520,10:41:31.849341,hand
9,333,hand1,10,cue,white,-1,-1,-1,4,4,-1,0.18431617553051183,-1,1,none,none,-1,-1,-1,1285309,13520,10:41:31.849341,hand
9,334,hand1,10,cue,black,-1,-1,-1,3,3,-1,0.28491639847788974,-1,1,none,none,-1,-1,-1,1287824,13520,10:41:31.849341,hand
9,335,hand1,10,cue,white,-1,-1,-1,3,4,-1,0.36690629249187623,-1,0,none,none,-1,-1,-1,1290541,13520,10:41:31.849341,hand
9,336,hand1,10,cue,white,-1,-1,-1,4,4,-1,0.309706362686029,-1,1,none,none,-1,-1,-1,1293441,13520,10:41:31.849341,hand
9,337,hand1,10,cue,black,-1,-1,-1,3,3,-1,0.2806509794372687,-1,1,none,none,-1,-1,-1,1296073,13520,10:41:31.849341,hand
9,338,hand1,10,gabor,0,0.01893998810188211,4,4,-1,3,0.27736090828693705,-1,1,-1,incongruent,hit,4,4,1.227317113630761,1298790,13520,10:41:31.849341,hand
9,339,hand1,10,cue,black,-1,-1,-1,3,3,-1,0.14524043669507591,-1,1,none,none,-1,-1,-1,1303742,13520,10:41:31.849341,hand
9,340,hand1,10,cue,white,-1,-1,-1,4,4,-1,0.2820041786362708,-1,1,none,none,-1,-1,-1,1306425,13520,10:41:31.849341,hand
9,341,hand1,10,gabor,90,0.01893998810188211,3,3,-1,4,0.18083602674005306,-1,1,-1,incongruent,CR,4,4,0.9197242607033331,1309241,13520,10:41:31.849341,hand
9,342,hand1,10,cue,white,-1,-1,-1,4,4,-1,0.27458615873820236,-1,1,none,none,-1,-1,-1,1313590,13520,10:41:31.849341,hand
9,343,hand1,10,gabor,0,0.01893998810188211,4,4,-1,4,0.36431547665915787,-1,1,-1,congruent,hit,c,4,1.0063651049708824,1316390,13520,10:41:31.849341,hand
9,344,hand1,10,cue,black,-1,-1,-1,3,3,-1,0.1482425114209036,-1,1,none,none,-1,-1,-1,1320990,13520,10:41:31.849341,hand
9,345,hand1,10,cue,white,-1,-1,-1,4,4,-1,0.32301448545194944,-1,1,none,none,-1,-1,-1,1323674,13520,10:41:31.849341,hand
9,346,hand1,10,gabor,0,0.01893998810188211,3,4,-1,3,0.2477648597514417,-1,0,-1,congruent,miss,q,1,1.5177649634301815,1326323,13520,10:41:31.849341,hand
9,347,hand1,10,cue,white,-1,-1,-1,4,4,-1,0.17252214596510385,-1,1,none,none,-1,-1,-1,1331322,13520,10:41:31.849341,hand
9,348,hand1,10,gabor,90,0.01893998810188211,4,3,-1,3,0.21138822340390107,-1,0,-1,incongruent,FA,3,1,1.0862902566200319,1333822,13520,10:41:31.849341,hand
9,349,hand1,10,cue,black,-1,-1,-1,3,3,-1,0.45316774946923033,-1,1,none,none,-1,-1,-1,1338456,13520,10:41:31.849341,hand
9,350,hand1,10,gabor,0,0.01893998810188211,3,4,-1,4,0.734802524691986,-1,0,-1,incongruent,miss,4,2,1.478708040361198,1345005,13520,10:41:31.849341,hand
9,351,hand1,10,gabor,90,0.01893998810188211,4,3,-1,4,0.6624977584278895,-1,0,-1,congruent,FA,3,3,1.4161398572077815,1350640,13520,10:41:31.849341,hand
9,352,hand1,10,cue,white,-1,-1,-1,4,4,-1,0.3742571132233934,-1,1,none,none,-1,-1,-1,1356173,13520,10:41:31.849341,hand
9,353,hand1,10,gabor,0,0.01893998810188211,3,4,-1,4,0.33572779960377375,-1,0,-1,incongruent,miss,c,1,1.5837514721415573,1361805,13520,10:41:31.849341,hand
9,354,hand1,10,cue,black,-1,-1,-1,3,3,-1,0.24053077356984431,-1,1,none,none,-1,-1,-1,1366971,13520,10:41:31.849341,hand
9,355,hand1,10,cue,white,-1,-1,-1,4,4,-1,0.16632830286744138,-1,1,none,none,-1,-1,-1,1369739,13520,10:41:31.849341,hand
9,356,hand1,10,gabor,0,0.01893998810188211,4,4,-1,3,0.3332222307126358,-1,1,-1,incongruent,hit,3,4,1.4231439302448052,1372338,13520,10:41:31.849341,hand
9,357,hand1,10,cue,white,-1,-1,-1,4,4,-1,0.21386768061893235,-1,1,none,none,-1,-1,-1,1377539,13520,10:41:31.849341,hand
9,358,hand1,10,cue,black,-1,-1,-1,3,3,-1,0.14188547035018928,-1,1,none,none,-1,-1,-1,1380088,13520,10:41:31.849341,hand
9,359,hand1,10,gabor,90,0.01893998810188211,3,3,-1,3,0.36343075164359107,-1,1,-1,congruent,CR,q,4,0.9125696615351444,1382554,13520,10:41:31.849341,hand
9,360,hand1,10,cue,black,-1,-1,-1,3,3,-1,0.24633332552548381,-1,1,none,none,-1,-1,-1,1387071,13520,10:41:31.849341,hand
9,361,hand1,11,cue,black,-1,-1,-1,3,3,-1,0.15943482045713608,-1,1,none,none,-1,-1,-1,1403437,13520,10:41:31.849341,hand
9,362,hand1,11,cue,black,-1,-1,-1,3,3,-1,0.20715505996258798,-1,1,none,none,-1,-1,-1,1406087,13520,10:41:31.849341,hand
9,363,hand1,11,gabor,90,0.01893998810188211,3,3,-1,3,0.28003620307072197,-1,1,-1,congruent,CR,4,4,1.1150111800211562,1411453,13520,10:41:31.849341,hand
9,364,hand1,11,cue,black,-1,-1,-1,3,3,-1,0.3407262655427985,-1,1,none,none,-1,-1,-1,1416186,13520,10:41:31.849341,hand
9,365,hand1,11,gabor,90,0.01893998810188211,3,3,-1,4,0.30846721007083033,-1,1,-1,incongruent,CR,q,4,0.9044546902905495,1418853,13520,10:41:31.849341,hand
9,366,hand1,11,cue,black,-1,-1,-1,3,3,-1,0.40814123651807677,-1,1,none,none,-1,-1,-1,1423505,13520,10:41:31.849341,hand
9,367,hand1,11,cue,white,-1,-1,-1,4,4,-1,0.18522701222173055,-1,1,none,none,-1,-1,-1,1426236,13520,10:41:31.849341,hand
9,368,hand1,11,cue,black,-1,-1,-1,3,3,-1,0.17401089548093296,-1,1,none,none,-1,-1,-1,1428753,13520,10:41:31.849341,hand
9,369,hand1,11,cue,white,-1,-1,-1,4,4,-1,0.21883350696316484,-1,1,none,none,-1,-1,-1,1431353,13520,10:41:31.849341,hand
9,370,hand1,11,gabor,0,0.01893998810188211,4,4,-1,4,0.28271533780616664,-1,1,-1,congruent,hit,3,4,0.8926234131877209,1434103,13520,10:41:31.849341,hand
9,371,hand1,11,cue,white,-1,-1,-1,4,4,-1,0.4324116551770203,-1,1,none,none,-1,-1,-1,1438502,13520,10:41:31.849341,hand
9,372,hand1,11,cue,white,-1,-1,-1,4,4,-1,0.16433498361675447,-1,1,none,none,-1,-1,-1,1441369,13520,10:41:31.849341,hand
9,373,hand1,11,gabor,90,0.01893998810188211,3,3,-1,3,0.39005198911445405,-1,1,-1,congruent,CR,q,4,1.1410710164623197,1444070,13520,10:41:31.849341,hand
9,374,hand1,11,cue,white,-1,-1,-1,4,4,-1,0.294773940086543,-1,1,none,none,-1,-1,-1,1449036,13520,10:41:31.849341,hand
9,375,hand1,11,cue,white,-1,-1,-1,4,4,-1,0.29567172093993577,-1,1,none,none,-1,-1,-1,1451652,13520,10:41:31.849341,hand
9,376,hand1,11,cue,white,-1,-1,-1,4,4,-1,0.29952127314390964,-1,1,none,none,-1,-1,-1,1454285,13520,10:41:31.849341,hand
9,377,hand1,11,cue,black,-1,-1,-1,3,3,-1,0.1433822837657317,-1,1,none,none,-1,-1,-1,1456918,13520,10:41:31.849341,hand
9,378,hand1,11,gabor,0,0.01893998810188211,4,4,-1,4,0.2821777444810323,-1,1,-1,congruent,hit,q,4,1.0662503134358303,1459486,13520,10:41:31.849341,hand
9,379,hand1,11,gabor,0,0.01893998810188211,4,4,-1,4,0.3377326387112589,-1,1,-1,congruent,hit,4,3,1.020743038454384,1467001,13520,10:41:31.849341,hand
9,380,hand1,11,cue,white,-1,-1,-1,4,4,-1,0.30553502247721553,-1,1,none,none,-1,-1,-1,1471601,13520,10:41:31.849341,hand
9,381,hand1,11,cue,black,-1,-1,-1,3,3,-1,0.15535295113795655,-1,1,none,none,-1,-1,-1,1474234,13520,10:41:31.849341,hand
9,382,hand1,11,gabor,0,0.01893998810188211,3,4,-1,3,0.057112378892725246,-1,0,-1,congruent,miss,q,1,1.3062934130607573,1476719,13520,10:41:31.849341,hand
9,383,hand1,11,gabor,90,0.01893998810188211,4,3,-1,3,0.23899863259293852,-1,0,-1,incongruent,FA,4,3,0.9740165786101898,1481318,13520,10:41:31.849341,hand
9,384,hand1,11,gabor,90,0.01893998810188211,3,3,-1,4,0.3076896197253518,-1,1,-1,incongruent,CR,c,4,0.9136790237612331,1485868,13520,10:41:31.849341,hand
9,385,hand1,11,cue,black,-1,-1,-1,3,3,-1,0.22820068665987492,-1,1,none,none,-1,-1,-1,1490535,13520,10:41:31.849341,hand
9,386,hand1,11,cue,white,-1,-1,-1,4,4,-1,0.18119544627734285,-1,1,none,none,-1,-1,-1,1493302,13520,10:41:31.849341,hand
9,387,hand1,11,cue,white,-1,-1,-1,4,4,-1,0.21821181868199346,-1,1,none,none,-1,-1,-1,1495817,13520,10:41:31.849341,hand
9,388,hand1,11,cue,white,-1,-1,-1,4,4,-1,0.17420942101580295,-1,1,none,none,-1,-1,-1,1498367,13520,10:41:31.849341,hand
9,389,hand1,11,gabor,0,0.01893998810188211,4,4,-1,3,0.3248557425913532,-1,1,-1,incongruent,hit,c,1,0.9537531502010097,1501068,13520,10:41:31.849341,hand
9,390,hand1,11,cue,white,-1,-1,-1,4,4,-1,0.1776657621016966,-1,1,none,none,-1,-1,-1,1505583,13520,10:41:31.849341,hand
9,391,hand1,11,cue,black,-1,-1,-1,3,3,-1,0.3374653780301742,-1,1,none,none,-1,-1,-1,1508083,13520,10:41:31.849341,hand
9,392,hand1,11,gabor,90,0.01893998810188211,3,3,-1,4,0.25625269036663667,-1,1,-1,incongruent,CR,4,4,0.9562053437543909,1510851,13520,10:41:31.849341,hand
9,393,hand1,11,cue,black,-1,-1,-1,3,3,-1,0.4231615940257143,-1,1,none,none,-1,-1,-1,1515300,13520,10:41:31.849341,hand
9,394,hand1,11,gabor,0,0.01893998810188211,4,4,-1,3,0.28578000375546253,-1,1,-1,incongruent,hit,3,3,1.2418052537459516,1518251,13520,10:41:31.849341,hand
9,395,hand1,11,cue,black,-1,-1,-1,4,3,-1,0.482581016273798,-1,0,none,none,-1,-1,-1,1523217,13520,10:41:31.849341,hand
9,396,hand1,11,cue,black,-1,-1,-1,3,3,-1,0.18363381600238426,-1,1,none,none,-1,-1,-1,1526032,13520,10:41:31.849341,hand
