start	accuracy_gabor	delta	orientation	pressed_gabor	expected_gabor	rt_gabor	trial	participant	response condition	date	expName	
0.0165	1	0.0165	0	n	n	1.2752706389044306	0	3	1	2021_Jun_10_1024	Motor	
0.025	0	0.025	90	n	x	0.9951025417324217	1	3	1	2021_Jun_10_1024	Motor	
0.0165	0	0.01485	0	x	n	0.6967592450373559	2	3	1	2021_Jun_10_1024	Motor	
0.025	1	0.02665	0	n	n	1.0677422847945763	3	3	1	2021_Jun_10_1024	Motor	
0.025	1	0.025	90	x	x	0.746482231833852	4	3	1	2021_Jun_10_1024	Motor	
0.0165	0	0.0165	0	x	n	1.2673699643039527	5	3	1	2021_Jun_10_1024	Motor	
0.025	1	0.025	0	n	n	0.5620668548749563	6	3	1	2021_Jun_10_1024	Motor	
0.0165	0	0.01815	90	n	x	0.7157281599625094	7	3	1	2021_Jun_10_1024	Motor	
0.025	1	0.025	0	n	n	0.512651447196049	8	3	1	2021_Jun_10_1024	Motor	
0.0165	1	0.019799999999999998	90	x	x	0.5862753666374374	9	3	1	2021_Jun_10_1024	Motor	
0.025	1	0.023350000000000003	0	n	n	0.6891504058048668	10	3	1	2021_Jun_10_1024	Motor	
0.025	1	0.023350000000000003	90	x	x	0.4880827491506352	11	3	1	2021_Jun_10_1024	Motor	
0.0165	1	0.019799999999999998	0	n	n	0.5347714161080148	12	3	1	2021_Jun_10_1024	Motor	
0.025	1	0.023350000000000003	0	n	n	0.5475779968421648	13	3	1	2021_Jun_10_1024	Motor	
0.0165	1	0.019799999999999998	0	n	n	0.49941364130677357	14	3	1	2021_Jun_10_1024	Motor	
0.025	0	0.021700000000000004	90	n	x	0.6612943359364181	15	3	1	2021_Jun_10_1024	Motor	
0.0165	0	0.01815	90	n	x	0.6291463661889338	16	3	1	2021_Jun_10_1024	Motor	
0.025	1	0.023350000000000003	0	n	n	0.4597194233333539	17	3	1	2021_Jun_10_1024	Motor	
0.0165	1	0.019799999999999998	0	n	n	0.5645029122097185	18	3	1	2021_Jun_10_1024	Motor	
0.025	1	0.023350000000000003	90	x	x	0.9233095052316003	19	3	1	2021_Jun_10_1024	Motor	
0.0165	0	0.019799999999999998	90	n	x	0.5202011513674734	20	3	1	2021_Jun_10_1024	Motor	
0.025	1	0.023350000000000003	90	x	x	0.8660502540503785	21	3	1	2021_Jun_10_1024	Motor	
0.025	1	0.021700000000000004	0	n	n	0.633775412716659	22	3	1	2021_Jun_10_1024	Motor	
0.0165	1	0.021449999999999997	0	n	n	1.0425000614388864	23	3	1	2021_Jun_10_1024	Motor	
0.025	1	0.021700000000000004	0	n	n	0.6113513206316838	24	3	1	2021_Jun_10_1024	Motor	
0.0165	1	0.021449999999999997	0	n	n	0.5331974250905205	25	3	1	2021_Jun_10_1024	Motor	
0.0165	0	0.021449999999999997	90	n	x	0.5792559580493162	26	3	1	2021_Jun_10_1024	Motor	
0.025	1	0.021700000000000004	90	x	x	0.738662195953566	27	3	1	2021_Jun_10_1024	Motor	
0.0165	1	0.023099999999999996	0	n	n	0.5914170450287202	28	3	1	2021_Jun_10_1024	Motor	
0.025	1	0.020050000000000005	90	x	x	0.7660801287761387	29	3	1	2021_Jun_10_1024	Motor	
0.0165	1	0.023099999999999996	90	x	x	0.582104808832355	30	3	1	2021_Jun_10_1024	Motor	
0.025	0	0.020050000000000005	0	x	n	0.7337309462225221	31	3	1	2021_Jun_10_1024	Motor	
0.025	1	0.021700000000000004	0	n	n	0.7915884599078709	32	3	1	2021_Jun_10_1024	Motor	
0.0165	0	0.023099999999999996	90	n	x	0.730382135374839	33	3	1	2021_Jun_10_1024	Motor	
0.025	0	0.021700000000000004	90	n	x	0.9821396754791749	34	3	1	2021_Jun_10_1024	Motor	
0.025	0	0.023350000000000003	0	x	n	0.8975888254701658	35	3	1	2021_Jun_10_1024	Motor	
0.0165	1	0.024749999999999994	0	n	n	0.620533766888002	36	3	1	2021_Jun_10_1024	Motor	
0.025	1	0.025	0	n	n	0.6052780730265113	37	3	1	2021_Jun_10_1024	Motor	
0.0165	0	0.024749999999999994	90	n	x	0.5311975848319435	38	3	1	2021_Jun_10_1024	Motor	
0.025	0	0.025	90	n	x	0.48918289168909723	39	3	1	2021_Jun_10_1024	Motor	
0.0165	1	0.026399999999999993	0	n	n	0.45075009369452346	40	3	1	2021_Jun_10_1024	Motor	
0.025	1	0.02665	0	n	n	0.3556474751633232	41	3	1	2021_Jun_10_1024	Motor	
0.025	1	0.02665	0	n	n	0.2794450366482124	42	3	1	2021_Jun_10_1024	Motor	
0.0165	1	0.026399999999999993	0	n	n	0.3782243968223611	43	3	1	2021_Jun_10_1024	Motor	
0.0165	0	0.026399999999999993	90	n	x	0.36111478038628775	44	3	1	2021_Jun_10_1024	Motor	
0.025	1	0.02665	0	n	n	0.5020693431554264	45	3	1	2021_Jun_10_1024	Motor	
0.025	0	0.025	0	x	n	0.5198743725538861	46	3	1	2021_Jun_10_1024	Motor	
0.0165	1	0.02804999999999999	0	n	n	0.48161475581059676	47	3	1	2021_Jun_10_1024	Motor	
0.025	1	0.02665	0	n	n	0.4325633743542312	48	3	1	2021_Jun_10_1024	Motor	
0.0165	1	0.02804999999999999	90	x	x	0.6853895694966923	49	3	1	2021_Jun_10_1024	Motor	
0.0165	1	0.02804999999999999	90	x	x	0.5872203756382532	50	3	1	2021_Jun_10_1024	Motor	
0.025	1	0.02665	0	n	n	0.7500368634148344	51	3	1	2021_Jun_10_1024	Motor	
0.0165	1	0.026399999999999993	90	x	x	0.6297546125347253	52	3	1	2021_Jun_10_1024	Motor	
0.025	1	0.02665	0	n	n	0.5905304031014111	53	3	1	2021_Jun_10_1024	Motor	
0.0165	1	0.026399999999999993	90	x	x	0.849397206367712	54	3	1	2021_Jun_10_1024	Motor	
0.025	1	0.025	0	n	n	0.6901691416353515	55	3	1	2021_Jun_10_1024	Motor	
0.0165	1	0.026399999999999993	90	x	x	1.2131496408890143	56	3	1	2021_Jun_10_1024	Motor	
0.025	1	0.025	90	x	x	0.58981924638897	57	3	1	2021_Jun_10_1024	Motor	
0.0165	1	0.024749999999999994	0	n	n	0.43262366139720143	58	3	1	2021_Jun_10_1024	Motor	
0.025	1	0.025	90	x	x	1.0414648138705616	59	3	1	2021_Jun_10_1024	Motor	
0.025	0	0.023350000000000003	90	n	x	0.7502868434471566	60	3	1	2021_Jun_10_1024	Motor	
0.0165	1	0.024749999999999994	90	x	x	1.2501263339950128	61	3	1	2021_Jun_10_1024	Motor	
0.025	1	0.025	0	n	n	0.5276813526415935	62	3	1	2021_Jun_10_1024	Motor	
0.0165	1	0.024749999999999994	0	n	n	0.6214123449431099	63	3	1	2021_Jun_10_1024	Motor	
0.025	1	0.025	0	n	n	0.43534425821576406	64	3	1	2021_Jun_10_1024	Motor	
0.025	1	0.025	0	n	n	0.33120088717942053	65	3	1	2021_Jun_10_1024	Motor	
0.0165	1	0.023099999999999996	0	n	n	0.48587056026258324	66	3	1	2021_Jun_10_1024	Motor	
0.025	1	0.023350000000000003	0	n	n	0.38850698561714125	67	3	1	2021_Jun_10_1024	Motor	
0.0165	0	0.023099999999999996	90	n	x	0.3594605346422668	68	3	1	2021_Jun_10_1024	Motor	
0.025	1	0.023350000000000003	90	x	x	0.739164843975459	69	3	1	2021_Jun_10_1024	Motor	
0.0165	1	0.024749999999999994	0	n	n	0.5120854401798169	70	3	1	2021_Jun_10_1024	Motor	
0.025	0	0.023350000000000003	90	n	x	0.9978089307765003	71	3	1	2021_Jun_10_1024	Motor	
0.0165	1	0.024749999999999994	0	n	n	0.3506578583585451	72	3	1	2021_Jun_10_1024	Motor	
0.0165	1	0.024749999999999994	0	n	n	0.2585419444224044	73	3	1	2021_Jun_10_1024	Motor	
0.025	0	0.025	90	n	x	0.8222453813214088	74	3	1	2021_Jun_10_1024	Motor	
0.0165	0	0.023099999999999996	90	n	x	0.47904276463327733	75	3	1	2021_Jun_10_1024	Motor	
0.025	1	0.02665	0	n	n	0.6061758507769355	76	3	1	2021_Jun_10_1024	Motor	
0.025	1	0.02665	90	x	x	0.7437716188569539	77	3	1	2021_Jun_10_1024	Motor	
0.0165	1	0.024749999999999994	0	n	n	0.5085799598189169	78	3	1	2021_Jun_10_1024	Motor	
0.025	1	0.02665	0	n	n	0.45948672302688465	79	3	1	2021_Jun_10_1024	Motor	
0.0165	1	0.024749999999999994	90	x	x	0.5072213893822664	80	3	1	2021_Jun_10_1024	Motor	
0.0165	1	0.024749999999999994	0	n	n	0.48910993284698634	81	3	1	2021_Jun_10_1024	Motor	
0.0165	1	0.023099999999999996	0	n	n	0.44166671786592815	82	3	1	2021_Jun_10_1024	Motor	
0.025	1	0.025	0	n	n	0.7665743289321654	83	3	1	2021_Jun_10_1024	Motor	
0.025	1	0.025	0	n	n	0.42236257626109364	84	3	1	2021_Jun_10_1024	Motor	
0.0165	1	0.023099999999999996	0	n	n	0.6471476164731484	85	3	1	2021_Jun_10_1024	Motor	
0.0165	0	0.023099999999999996	90	n	x	0.5110597924590365	86	3	1	2021_Jun_10_1024	Motor	
0.025	1	0.025	90	x	x	0.4608115019998422	87	3	1	2021_Jun_10_1024	Motor	
0.0165	1	0.024749999999999994	0	n	n	0.39779311022789443	88	3	1	2021_Jun_10_1024	Motor	
0.025	1	0.023350000000000003	0	n	n	0.45156608074330506	89	3	1	2021_Jun_10_1024	Motor	
