start,accuracy_gabor,delta,orientation,pressed_gabor,expected_gabor,rt_gabor,trial,participant,response condition,date,expName,
0.0165,1,0.0165,0,x,x,0.8153382876589603,0,22,2,2021_Jun_23_1112,Motor,
0.025,1,0.025,90,n,n,0.49705071329299244,1,22,2,2021_Jun_23_1112,Motor,
0.025,1,0.023350000000000003,90,n,n,0.653960599634047,2,22,2,2021_Jun_23_1112,Motor,
0.0165,1,0.01485,90,n,n,0.7467176921491046,3,22,2,2021_Jun_23_1112,Motor,
0.0165,1,0.0132,0,x,x,0.5305429060636015,4,22,2,2021_Jun_23_1112,Motor,
0.025,1,0.021700000000000004,90,n,n,0.5312698118304979,5,22,2,2021_Jun_23_1112,Motor,
0.025,1,0.020050000000000005,90,n,n,0.5720372062087336,6,22,2,2021_Jun_23_1112,Motor,
0.0165,1,0.01155,90,n,n,0.6082557755980815,7,22,2,2021_Jun_23_1112,Motor,
0.0165,1,0.009899999999999999,90,n,n,0.6147122962274807,8,22,2,2021_Jun_23_1112,Motor,
0.0165,0,0.008249999999999999,0,n,x,0.9125616458713921,9,22,2,2021_Jun_23_1112,Motor,
0.025,1,0.018400000000000007,90,n,n,0.6702443639842386,10,22,2,2021_Jun_23_1112,Motor,
0.0165,0,0.009899999999999999,0,n,x,0.8851811446866122,11,22,2,2021_Jun_23_1112,Motor,
0.025,1,0.016750000000000008,90,n,n,0.8638620315186927,12,22,2,2021_Jun_23_1112,Motor,
0.0165,0,0.01155,0,n,x,0.819721610067063,13,22,2,2021_Jun_23_1112,Motor,
0.025,0,0.015100000000000008,0,n,x,1.1324516000950098,14,22,2,2021_Jun_23_1112,Motor,
0.025,1,0.016750000000000008,90,n,n,0.7293088174474178,15,22,2,2021_Jun_23_1112,Motor,
0.0165,1,0.0132,90,n,n,0.8941781875282686,16,22,2,2021_Jun_23_1112,Motor,
0.0165,0,0.0132,0,n,x,0.8329821683446426,17,22,2,2021_Jun_23_1112,Motor,
0.025,1,0.016750000000000008,90,n,n,0.6348963151285716,18,22,2,2021_Jun_23_1112,Motor,
0.0165,0,0.01485,0,n,x,1.0025716259451656,19,22,2,2021_Jun_23_1112,Motor,
0.025,1,0.016750000000000008,90,n,n,0.8934021301838584,20,22,2,2021_Jun_23_1112,Motor,
0.0165,0,0.0165,0,n,x,0.9801128105527823,21,22,2,2021_Jun_23_1112,Motor,
0.025,0,0.015100000000000008,0,n,x,0.9740583344755578,22,22,2,2021_Jun_23_1112,Motor,
0.025,0,0.016750000000000008,0,n,x,1.0178815746476175,23,22,2,2021_Jun_23_1112,Motor,
0.0165,0,0.01815,0,n,x,1.1716269441276381,24,22,2,2021_Jun_23_1112,Motor,
0.025,0,0.018400000000000007,0,n,x,0.7983936649761745,25,22,2,2021_Jun_23_1112,Motor,
0.0165,1,0.019799999999999998,90,n,n,0.7891811999816127,26,22,2,2021_Jun_23_1112,Motor,
0.0165,0,0.019799999999999998,0,n,x,0.9321017022957676,27,22,2,2021_Jun_23_1112,Motor,
0.025,1,0.020050000000000005,90,n,n,0.5968806411519836,28,22,2,2021_Jun_23_1112,Motor,
0.025,0,0.020050000000000005,0,n,x,0.7586983894025252,29,22,2,2021_Jun_23_1112,Motor,
0.0165,1,0.021449999999999997,90,n,n,0.6624956944369842,30,22,2,2021_Jun_23_1112,Motor,
0.025,0,0.021700000000000004,0,n,x,1.0743171866552075,31,22,2,2021_Jun_23_1112,Motor,
0.0165,1,0.021449999999999997,90,n,n,0.921199267794691,32,22,2,2021_Jun_23_1112,Motor,
0.0165,0,0.021449999999999997,0,n,x,0.7430113559348683,33,22,2,2021_Jun_23_1112,Motor,
0.025,0,0.023350000000000003,0,n,x,0.9357688708469141,34,22,2,2021_Jun_23_1112,Motor,
0.0165,1,0.023099999999999996,90,n,n,0.6287592797598336,35,22,2,2021_Jun_23_1112,Motor,
0.025,1,0.025,90,n,n,0.5983809162844409,36,22,2,2021_Jun_23_1112,Motor,
0.0165,1,0.023099999999999996,90,n,n,0.9283527424468048,37,22,2,2021_Jun_23_1112,Motor,
0.025,1,0.025,90,n,n,0.7050598094074303,38,22,2,2021_Jun_23_1112,Motor,
0.025,0,0.025,0,n,x,0.7433231612603777,39,22,2,2021_Jun_23_1112,Motor,
0.0165,0,0.023099999999999996,0,n,x,0.8221238934656867,40,22,2,2021_Jun_23_1112,Motor,
0.025,1,0.02665,90,n,n,0.6947886654925242,41,22,2,2021_Jun_23_1112,Motor,
0.0165,1,0.024749999999999994,90,n,n,0.7095302990683194,42,22,2,2021_Jun_23_1112,Motor,
0.0165,0,0.024749999999999994,0,n,x,0.5450499176522499,43,22,2,2021_Jun_23_1112,Motor,
0.025,1,0.02665,90,n,n,0.5339885085149945,44,22,2,2021_Jun_23_1112,Motor,
0.0165,1,0.026399999999999993,90,n,n,0.4427770027450606,45,22,2,2021_Jun_23_1112,Motor,
0.0165,1,0.026399999999999993,90,n,n,0.49159565607533295,46,22,2,2021_Jun_23_1112,Motor,
0.025,1,0.02665,90,n,n,0.4184607952802253,47,22,2,2021_Jun_23_1112,Motor,
0.0165,1,0.026399999999999993,90,n,n,0.46725640880868013,48,22,2,2021_Jun_23_1112,Motor,
0.025,1,0.025,90,n,n,0.3911490295058684,49,22,2,2021_Jun_23_1112,Motor,
0.0165,1,0.024749999999999994,0,x,x,0.8099976614594198,50,22,2,2021_Jun_23_1112,Motor,
0.0165,0,0.024749999999999994,0,n,x,0.8176057882128589,51,22,2,2021_Jun_23_1112,Motor,
0.025,1,0.025,90,n,n,0.5073306891326865,52,22,2,2021_Jun_23_1112,Motor,
0.025,0,0.025,0,n,x,0.6571358684022925,53,22,2,2021_Jun_23_1112,Motor,
0.0165,1,0.026399999999999993,0,x,x,1.169054934185624,54,22,2,2021_Jun_23_1112,Motor,
0.0165,0,0.026399999999999993,0,n,x,0.676758484119091,55,22,2,2021_Jun_23_1112,Motor,
0.025,1,0.02665,90,n,n,0.5715629702763181,56,22,2,2021_Jun_23_1112,Motor,
0.0165,1,0.02804999999999999,0,x,x,0.887441349303117,57,22,2,2021_Jun_23_1112,Motor,
0.025,1,0.02665,90,n,n,0.5022139330139908,58,22,2,2021_Jun_23_1112,Motor,
0.0165,1,0.02804999999999999,0,x,x,0.6001231093441675,59,22,2,2021_Jun_23_1112,Motor,
0.0165,1,0.02804999999999999,0,x,x,0.5477256067051712,60,22,2,2021_Jun_23_1112,Motor,
0.025,1,0.02665,90,n,n,0.5553583092469125,61,22,2,2021_Jun_23_1112,Motor,
0.0165,1,0.026399999999999993,90,n,n,0.3804001936878194,62,22,2,2021_Jun_23_1112,Motor,
0.025,0,0.025,0,n,x,0.5512153687768659,63,22,2,2021_Jun_23_1112,Motor,
0.0165,1,0.026399999999999993,90,n,n,0.6950175275296715,64,22,2,2021_Jun_23_1112,Motor,
0.025,1,0.02665,0,x,x,0.6058154765260042,65,22,2,2021_Jun_23_1112,Motor,
0.025,1,0.02665,0,x,x,0.5555913952484843,66,22,2,2021_Jun_23_1112,Motor,
0.0165,1,0.026399999999999993,0,x,x,0.5604577855137904,67,22,2,2021_Jun_23_1112,Motor,
0.0165,1,0.024749999999999994,90,n,n,0.38423401680938696,68,22,2,2021_Jun_23_1112,Motor,
0.025,1,0.02665,90,n,n,0.4350797887555018,69,22,2,2021_Jun_23_1112,Motor,
0.0165,1,0.024749999999999994,90,n,n,0.43101287963327195,70,22,2,2021_Jun_23_1112,Motor,
0.025,1,0.025,0,x,x,0.6917623874451237,71,22,2,2021_Jun_23_1112,Motor,
0.0165,1,0.024749999999999994,90,n,n,0.39056266653460625,72,22,2,2021_Jun_23_1112,Motor,
0.025,0,0.025,90,x,n,0.48139862352581986,73,22,2,2021_Jun_23_1112,Motor,
0.0165,1,0.023099999999999996,90,n,n,0.5362963287225284,74,22,2,2021_Jun_23_1112,Motor,
0.025,1,0.02665,0,x,x,0.4491544200518547,75,22,2,2021_Jun_23_1112,Motor,
0.025,1,0.02665,90,n,n,0.48467641941533657,76,22,2,2021_Jun_23_1112,Motor,
0.0165,1,0.023099999999999996,90,n,n,0.4832974872406339,77,22,2,2021_Jun_23_1112,Motor,
0.025,1,0.02665,90,n,n,0.42627628025456943,78,22,2,2021_Jun_23_1112,Motor,
0.0165,1,0.023099999999999996,90,n,n,0.47209246333568444,79,22,2,2021_Jun_23_1112,Motor,
0.0165,1,0.021449999999999997,90,n,n,0.3847616282837407,80,22,2,2021_Jun_23_1112,Motor,
0.025,1,0.025,0,x,x,0.4355728405271293,81,22,2,2021_Jun_23_1112,Motor,
0.025,1,0.025,90,n,n,0.37631485272413556,82,22,2,2021_Jun_23_1112,Motor,
0.0165,1,0.021449999999999997,0,x,x,0.38424784069047746,83,22,2,2021_Jun_23_1112,Motor,
0.0165,1,0.021449999999999997,0,x,x,0.46609827474094345,84,22,2,2021_Jun_23_1112,Motor,
0.0165,1,0.019799999999999998,0,x,x,0.411652917664469,85,22,2,2021_Jun_23_1112,Motor,
0.025,1,0.025,90,n,n,0.4014282373509559,86,22,2,2021_Jun_23_1112,Motor,
0.0165,1,0.019799999999999998,90,n,n,0.4392496089958513,87,22,2,2021_Jun_23_1112,Motor,
0.025,1,0.023350000000000003,90,n,n,0.46419902702928084,88,22,2,2021_Jun_23_1112,Motor,
0.0165,1,0.019799999999999998,0,x,x,0.5167267045517292,89,22,2,2021_Jun_23_1112,Motor,
0.025,1,0.023350000000000003,0,x,x,0.4983920137901805,90,22,2,2021_Jun_23_1112,Motor,
0.0165,1,0.01815,0,x,x,0.48139593554878957,91,22,2,2021_Jun_23_1112,Motor,
