start,accuracy_gabor,delta,orientation,pressed_gabor,expected_gabor,rt_gabor,trial,participant,response condition,date,expName,
0.0425,1,0.0425,0,4,4,0.5185298819328636,0,13,5,2021_Apr_21_1220,Motor,
0.0005,1,0.0005,0,4,4,0.7221905852816235,1,13,5,2021_Apr_21_1220,Motor,
0.0005,0,0.0005,90,4,3,1.7560370770436293,2,13,5,2021_Apr_21_1220,Motor,
0.0425,1,0.038000000000000006,90,3,3,0.5825518710360029,3,13,5,2021_Apr_21_1220,Motor,
0.0425,1,0.03350000000000001,90,3,3,0.4085217757938153,4,13,5,2021_Apr_21_1220,Motor,
0.0005,1,0.004999999999999999,0,4,4,0.5212988715531992,5,13,5,2021_Apr_21_1220,Motor,
0.0005,1,0.004999999999999999,0,4,4,0.6458492611357087,6,13,5,2021_Apr_21_1220,Motor,
0.0425,1,0.02900000000000001,0,4,4,2.9400422164358133,7,13,5,2021_Apr_21_1220,Motor,
0.0425,1,0.024500000000000008,90,3,3,0.7055651277032666,8,13,5,2021_Apr_21_1220,Motor,
0.0005,1,0.004999999999999999,90,3,3,0.7793513475735381,9,13,5,2021_Apr_21_1220,Motor,
0.0425,1,0.020000000000000007,90,3,3,0.5641266278037165,10,13,5,2021_Apr_21_1220,Motor,
0.0005,0,0.0005,90,4,3,1.0109238963689222,11,13,5,2021_Apr_21_1220,Motor,
0.0005,0,0.004999999999999999,90,4,3,0.9127274835755088,12,13,5,2021_Apr_21_1220,Motor,
0.0425,1,0.015500000000000007,0,4,4,0.9044009309579906,13,13,5,2021_Apr_21_1220,Motor,
0.0005,0,0.009499999999999998,0,3,4,0.5822032033649975,14,13,5,2021_Apr_21_1220,Motor,
0.0425,1,0.011000000000000006,0,4,4,0.8799511865261138,15,13,5,2021_Apr_21_1220,Motor,
0.0425,1,0.006500000000000007,90,3,3,0.6307163930252955,16,13,5,2021_Apr_21_1220,Motor,
0.0005,1,0.013999999999999999,0,4,4,0.9724521820335212,17,13,5,2021_Apr_21_1220,Motor,
0.0425,1,0.002000000000000007,0,4,4,0.7542388273707274,18,13,5,2021_Apr_21_1220,Motor,
0.0005,0,0.013999999999999999,0,3,4,1.0529740622741883,19,13,5,2021_Apr_21_1220,Motor,
0.0425,0,0.0005,90,4,3,0.8627397522232059,20,13,5,2021_Apr_21_1220,Motor,
0.0005,1,0.0185,90,3,3,0.6674962243669142,21,13,5,2021_Apr_21_1220,Motor,
0.0425,0,0.004999999999999999,0,3,4,0.7521157177313853,22,13,5,2021_Apr_21_1220,Motor,
0.0005,1,0.0185,0,4,4,0.7061760641179262,23,13,5,2021_Apr_21_1220,Motor,
0.0005,1,0.0185,90,3,3,0.6108676794669918,24,13,5,2021_Apr_21_1220,Motor,
0.0425,1,0.009499999999999998,90,3,3,0.836615404583199,25,13,5,2021_Apr_21_1220,Motor,
0.0425,1,0.009499999999999998,90,3,3,0.8773476988510538,26,13,5,2021_Apr_21_1220,Motor,
0.0005,1,0.013999999999999999,90,3,3,1.4033124964719264,27,13,5,2021_Apr_21_1220,Motor,
0.0425,1,0.009499999999999998,90,3,3,1.7170293053641217,28,13,5,2021_Apr_21_1220,Motor,
0.0005,1,0.013999999999999999,0,4,4,1.4897118077383311,29,13,5,2021_Apr_21_1220,Motor,
0.0005,1,0.013999999999999999,0,4,4,1.106348631575429,30,13,5,2021_Apr_21_1220,Motor,
0.0425,1,0.004999999999999998,90,3,3,0.7621326173614307,31,13,5,2021_Apr_21_1220,Motor,
0.0425,1,0.004999999999999998,90,3,3,1.3377537584494803,32,13,5,2021_Apr_21_1220,Motor,
0.0005,1,0.009499999999999998,0,4,4,1.0545399948314298,33,13,5,2021_Apr_21_1220,Motor,
0.0005,1,0.009499999999999998,90,3,3,0.6154080390938361,34,13,5,2021_Apr_21_1220,Motor,
0.0425,1,0.004999999999999998,90,3,3,0.8421771915279805,35,13,5,2021_Apr_21_1220,Motor,
0.0005,0,0.009499999999999998,0,3,4,0.7978814215041439,36,13,5,2021_Apr_21_1220,Motor,
0.0425,1,0.0005,90,3,3,1.121604762155357,37,13,5,2021_Apr_21_1220,Motor,
0.0005,1,0.013999999999999999,90,3,3,0.7573645485617817,38,13,5,2021_Apr_21_1220,Motor,
0.0425,0,0.0005,0,3,4,0.7271103321982082,39,13,5,2021_Apr_21_1220,Motor,
0.0425,1,0.004999999999999999,0,4,4,0.8078572336446541,40,13,5,2021_Apr_21_1220,Motor,
0.0005,1,0.013999999999999999,90,3,3,2.3984242371645905,41,13,5,2021_Apr_21_1220,Motor,
0.0005,1,0.013999999999999999,0,4,4,0.8422267269129406,42,13,5,2021_Apr_21_1220,Motor,
0.0425,0,0.004999999999999999,90,4,3,0.8540975555247314,43,13,5,2021_Apr_21_1220,Motor,
0.0005,1,0.009499999999999998,0,4,4,3.7537692012015214,44,13,5,2021_Apr_21_1220,Motor,
0.0425,0,0.009499999999999998,90,4,3,0.6443071362825776,45,13,5,2021_Apr_21_1220,Motor,
0.0425,1,0.013999999999999999,90,3,3,0.6251457741900595,46,13,5,2021_Apr_21_1220,Motor,
0.0005,1,0.009499999999999998,90,3,3,0.6389734425058577,47,13,5,2021_Apr_21_1220,Motor,
0.0005,0,0.009499999999999998,0,3,4,0.637862160303257,48,13,5,2021_Apr_21_1220,Motor,
0.0425,1,0.013999999999999999,90,3,3,0.5104694380113415,49,13,5,2021_Apr_21_1220,Motor,
0.0425,1,0.013999999999999999,0,4,4,0.7173146138215998,50,13,5,2021_Apr_21_1220,Motor,
0.0005,1,0.013999999999999999,90,3,3,0.6812636054310133,51,13,5,2021_Apr_21_1220,Motor,
0.0425,1,0.009499999999999998,90,3,3,0.6209533142437067,52,13,5,2021_Apr_21_1220,Motor,
0.0005,1,0.013999999999999999,0,4,4,0.873620641126081,53,13,5,2021_Apr_21_1220,Motor,
0.0425,1,0.009499999999999998,0,4,4,0.7663300692458961,54,13,5,2021_Apr_21_1220,Motor,
0.0005,0,0.013999999999999999,90,4,3,1.0772341130611949,55,13,5,2021_Apr_21_1220,Motor,
0.0005,1,0.0185,0,4,4,3.477092956414026,56,13,5,2021_Apr_21_1220,Motor,
0.0425,0,0.009499999999999998,90,4,3,0.7344054736215639,57,13,5,2021_Apr_21_1220,Motor,
0.0425,0,0.013999999999999999,0,3,4,1.2280682083051033,58,13,5,2021_Apr_21_1220,Motor,
0.0005,1,0.0185,0,4,4,0.8221545281294311,59,13,5,2021_Apr_21_1220,Motor,
0.0005,1,0.0185,0,4,4,0.8028837273957379,60,13,5,2021_Apr_21_1220,Motor,
0.0425,1,0.0185,90,3,3,0.4675429949861609,61,13,5,2021_Apr_21_1220,Motor,
0.0425,1,0.0185,90,3,3,0.5042479472574541,62,13,5,2021_Apr_21_1220,Motor,
0.0005,1,0.013999999999999999,90,3,3,0.5971363939545427,63,13,5,2021_Apr_21_1220,Motor,
0.0425,1,0.0185,0,4,4,0.72697401389064,64,13,5,2021_Apr_21_1220,Motor,
0.0005,1,0.013999999999999999,90,3,3,0.5776509398858707,65,13,5,2021_Apr_21_1220,Motor,
0.0005,1,0.013999999999999999,90,3,3,1.0484575103514544,66,13,5,2021_Apr_21_1220,Motor,
0.0425,1,0.013999999999999999,0,4,4,0.502166693098161,67,13,5,2021_Apr_21_1220,Motor,
0.0005,0,0.009499999999999998,0,3,4,0.7320823024663241,68,13,5,2021_Apr_21_1220,Motor,
0.0425,0,0.013999999999999999,90,4,3,0.07191193914150062,69,13,5,2021_Apr_21_1220,Motor,
0.0425,1,0.0185,0,4,4,0.6326824486145597,70,13,5,2021_Apr_21_1220,Motor,
0.0005,1,0.013999999999999999,90,3,3,0.6313480651822374,71,13,5,2021_Apr_21_1220,Motor,
0.0425,1,0.0185,90,3,3,0.4831992485981118,72,13,5,2021_Apr_21_1220,Motor,
0.0005,1,0.013999999999999999,90,3,3,1.6949971949147766,73,13,5,2021_Apr_21_1220,Motor,
0.0425,1,0.0185,0,4,4,0.6287096339410709,74,13,5,2021_Apr_21_1220,Motor,
0.0005,1,0.013999999999999999,0,4,4,0.6485222519477247,75,13,5,2021_Apr_21_1220,Motor,
0.0425,1,0.013999999999999999,0,4,4,0.7461868313444029,76,13,5,2021_Apr_21_1220,Motor,
0.0005,1,0.009499999999999998,90,3,3,0.061110921246608996,77,13,5,2021_Apr_21_1220,Motor,
0.0005,1,0.009499999999999998,0,4,4,0.613822522779401,78,13,5,2021_Apr_21_1220,Motor,
0.0425,0,0.013999999999999999,90,4,3,0.5876010243455312,79,13,5,2021_Apr_21_1220,Motor,
0.0425,1,0.0185,0,4,4,0.49227843187100007,80,13,5,2021_Apr_21_1220,Motor,
0.0005,1,0.009499999999999998,90,3,3,0.54026170811062,81,13,5,2021_Apr_21_1220,Motor,
0.0425,0,0.0185,90,4,3,0.68693291104114,82,13,5,2021_Apr_21_1220,Motor,
0.0005,1,0.004999999999999998,90,3,3,1.1296375584201996,83,13,5,2021_Apr_21_1220,Motor,
0.0005,1,0.004999999999999998,0,4,4,0.6543424676838185,84,13,5,2021_Apr_21_1220,Motor,
0.0425,1,0.023,0,4,4,1.3392505718650227,85,13,5,2021_Apr_21_1220,Motor,
0.0425,1,0.023,0,4,4,3.9368331682794633,86,13,5,2021_Apr_21_1220,Motor,
0.0005,1,0.004999999999999998,0,4,4,0.7404998619535945,87,13,5,2021_Apr_21_1220,Motor,
0.0005,1,0.0005,0,4,4,0.6082019845639479,88,13,5,2021_Apr_21_1220,Motor,
0.0425,1,0.023,90,3,3,0.7811303974849579,89,13,5,2021_Apr_21_1220,Motor,
0.0425,0,0.0185,0,3,4,0.6937860739519692,90,13,5,2021_Apr_21_1220,Motor,
0.0005,1,0.0005,0,4,4,0.5745313626186999,91,13,5,2021_Apr_21_1220,Motor,
0.0425,1,0.023,0,4,4,0.6674178893395037,92,13,5,2021_Apr_21_1220,Motor,
0.0005,1,0.0005,0,4,4,0.7611979729658742,93,13,5,2021_Apr_21_1220,Motor,
0.0005,1,0.0005,0,4,4,2.951819734206083,94,13,5,2021_Apr_21_1220,Motor,
0.0425,1,0.023,90,3,3,0.6755451484314108,95,13,5,2021_Apr_21_1220,Motor,
0.0005,1,0.0005,0,4,4,1.193252128581662,96,13,5,2021_Apr_21_1220,Motor,
0.0425,1,0.023,0,4,4,1.2922211397824412,97,13,5,2021_Apr_21_1220,Motor,
0.0005,1,0.0005,0,4,4,3.4558019567630254,98,13,5,2021_Apr_21_1220,Motor,
0.0425,0,0.0185,90,4,3,0.6594622761163009,99,13,5,2021_Apr_21_1220,Motor,
