start,accuracy_gabor,delta,orientation,pressed_gabor,expected_gabor,rt_gabor,trial,participant,response condition,date,expName,
0.025,1,0.025,0,x,x,0.5143190451999544,0,7,2,2021_May_21_1354,Motor,
0.0425,1,0.0425,90,n,n,0.4910680446009792,1,7,2,2021_May_21_1354,Motor,
0.0425,1,0.038000000000000006,90,n,n,0.42211490794215933,2,7,2,2021_May_21_1354,Motor,
0.025,1,0.0205,0,x,x,0.4839955932538942,3,7,2,2021_May_21_1354,Motor,
0.0425,1,0.03350000000000001,90,n,n,0.5256918756667801,4,7,2,2021_May_21_1354,Motor,
0.025,1,0.016,0,x,x,0.6915170135498556,5,7,2,2021_May_21_1354,Motor,
0.025,1,0.0115,0,x,x,0.6023153465439464,6,7,2,2021_May_21_1354,Motor,
0.0425,1,0.02900000000000001,90,n,n,0.36814685877197917,7,7,2,2021_May_21_1354,Motor,
0.025,0,0.007,90,x,n,0.6680444468511268,8,7,2,2021_May_21_1354,Motor,
0.0425,1,0.024500000000000008,90,n,n,0.594788627093294,9,7,2,2021_May_21_1354,Motor,
0.025,1,0.0115,0,x,x,0.8256359273464113,10,7,2,2021_May_21_1354,Motor,
0.0425,1,0.020000000000000007,90,n,n,0.7113899951191343,11,7,2,2021_May_21_1354,Motor,
0.0425,0,0.015500000000000007,90,x,n,0.8892879894665384,12,7,2,2021_May_21_1354,Motor,
0.025,1,0.0115,0,x,x,0.5361588579016825,13,7,2,2021_May_21_1354,Motor,
0.0425,1,0.020000000000000007,90,n,n,0.5089227394782938,14,7,2,2021_May_21_1354,Motor,
0.025,0,0.0115,90,x,n,0.6307767984581005,15,7,2,2021_May_21_1354,Motor,
0.025,0,0.016,0,n,x,0.8755700911106032,16,7,2,2021_May_21_1354,Motor,
0.0425,1,0.020000000000000007,0,x,x,0.5794187749042976,17,7,2,2021_May_21_1354,Motor,
0.0425,0,0.020000000000000007,90,x,n,1.050201425472551,18,7,2,2021_May_21_1354,Motor,
0.025,1,0.0205,0,x,x,0.5071636505645074,19,7,2,2021_May_21_1354,Motor,
0.0425,1,0.024500000000000008,0,x,x,0.47189240105126373,20,7,2,2021_May_21_1354,Motor,
0.025,0,0.0205,0,n,x,0.8036932035265636,21,7,2,2021_May_21_1354,Motor,
0.0425,1,0.024500000000000008,0,x,x,0.5495085034144722,22,7,2,2021_May_21_1354,Motor,
0.025,1,0.025,0,x,x,0.5223430403866587,23,7,2,2021_May_21_1354,Motor,
0.025,1,0.025,90,n,n,0.5031616368860341,24,7,2,2021_May_21_1354,Motor,
0.0425,1,0.024500000000000008,0,x,x,0.5420516713647885,25,7,2,2021_May_21_1354,Motor,
0.025,1,0.025,0,x,x,0.5189339176222347,26,7,2,2021_May_21_1354,Motor,
0.0425,1,0.020000000000000007,0,x,x,0.6276176575511272,27,7,2,2021_May_21_1354,Motor,
0.0425,1,0.020000000000000007,0,x,x,0.633449031541204,28,7,2,2021_May_21_1354,Motor,
0.025,1,0.0205,90,n,n,0.37837883502288605,29,7,2,2021_May_21_1354,Motor,
0.025,1,0.0205,0,x,x,0.50223927679599,30,7,2,2021_May_21_1354,Motor,
0.0425,1,0.020000000000000007,90,n,n,0.44698023069759074,31,7,2,2021_May_21_1354,Motor,
0.0425,1,0.015500000000000007,0,x,x,0.551842435398612,32,7,2,2021_May_21_1354,Motor,
0.025,1,0.0205,0,x,x,0.667570978911499,33,7,2,2021_May_21_1354,Motor,
0.025,1,0.016,90,n,n,0.5153896280180561,34,7,2,2021_May_21_1354,Motor,
0.0425,1,0.015500000000000007,0,x,x,0.4482654676758102,35,7,2,2021_May_21_1354,Motor,
0.025,1,0.016,0,x,x,0.4881416056969101,36,7,2,2021_May_21_1354,Motor,
0.0425,1,0.015500000000000007,90,n,n,0.4869969115152344,37,7,2,2021_May_21_1354,Motor,
0.025,0,0.016,90,x,n,0.48170812487114745,38,7,2,2021_May_21_1354,Motor,
0.0425,0,0.011000000000000006,0,n,x,0.6536779780581128,39,7,2,2021_May_21_1354,Motor,
0.025,1,0.0205,90,n,n,0.7333795665372236,40,7,2,2021_May_21_1354,Motor,
0.0425,0,0.015500000000000007,0,n,x,0.49228685014713847,41,7,2,2021_May_21_1354,Motor,
0.025,1,0.0205,0,x,x,0.582094847954977,42,7,2,2021_May_21_1354,Motor,
0.0425,0,0.020000000000000007,90,x,n,0.7968757259941412,43,7,2,2021_May_21_1354,Motor,
0.0425,1,0.024500000000000008,90,n,n,0.5516753968313424,44,7,2,2021_May_21_1354,Motor,
0.025,1,0.0205,0,x,x,0.49151924073157716,45,7,2,2021_May_21_1354,Motor,
0.025,1,0.016,0,x,x,0.8743167258598987,46,7,2,2021_May_21_1354,Motor,
0.0425,1,0.024500000000000008,0,x,x,0.44905534890131094,47,7,2,2021_May_21_1354,Motor,
0.025,1,0.016,90,n,n,0.48199919437502103,48,7,2,2021_May_21_1354,Motor,
0.0425,1,0.024500000000000008,0,x,x,0.6807823856097457,49,7,2,2021_May_21_1354,Motor,
0.025,1,0.016,90,n,n,0.5555368677160004,50,7,2,2021_May_21_1354,Motor,
0.0425,1,0.020000000000000007,0,x,x,0.6634130625689068,51,7,2,2021_May_21_1354,Motor,
0.025,1,0.0115,90,n,n,0.7022166977894813,52,7,2,2021_May_21_1354,Motor,
0.0425,1,0.020000000000000007,90,n,n,0.5731557886156224,53,7,2,2021_May_21_1354,Motor,
0.025,1,0.0115,90,n,n,0.5759236368785423,54,7,2,2021_May_21_1354,Motor,
0.0425,1,0.020000000000000007,90,n,n,0.635711156141042,55,7,2,2021_May_21_1354,Motor,
0.0425,1,0.015500000000000007,90,n,n,0.5606083122229393,56,7,2,2021_May_21_1354,Motor,
0.025,1,0.0115,0,x,x,0.48834205197908886,57,7,2,2021_May_21_1354,Motor,
0.0425,1,0.015500000000000007,90,n,n,0.6711717160314947,58,7,2,2021_May_21_1354,Motor,
0.025,0,0.007,0,n,x,0.8391933150787736,59,7,2,2021_May_21_1354,Motor,
0.0425,0,0.015500000000000007,0,n,x,0.7826809037278508,60,7,2,2021_May_21_1354,Motor,
0.0425,1,0.020000000000000007,90,n,n,0.9614140909125126,61,7,2,2021_May_21_1354,Motor,
0.025,1,0.0115,0,x,x,0.5811924556937811,62,7,2,2021_May_21_1354,Motor,
0.025,1,0.0115,90,n,n,0.6360598251512783,63,7,2,2021_May_21_1354,Motor,
0.0425,1,0.020000000000000007,90,n,n,0.6290154055641324,64,7,2,2021_May_21_1354,Motor,
0.025,1,0.0115,90,n,n,0.49368651814438635,65,7,2,2021_May_21_1354,Motor,
0.0425,1,0.020000000000000007,0,x,x,0.5005343314169295,66,7,2,2021_May_21_1354,Motor,
0.0425,1,0.015500000000000007,0,x,x,0.9143568304762084,67,7,2,2021_May_21_1354,Motor,
0.025,1,0.007,0,x,x,0.9282279435165037,68,7,2,2021_May_21_1354,Motor,
0.025,1,0.007,0,x,x,0.7771624870547384,69,7,2,2021_May_21_1354,Motor,
0.0425,1,0.015500000000000007,0,x,x,0.579518998045387,70,7,2,2021_May_21_1354,Motor,
0.025,0,0.007,0,n,x,0.6626262533172849,71,7,2,2021_May_21_1354,Motor,
0.0425,0,0.015500000000000007,90,x,n,0.654370708116403,72,7,2,2021_May_21_1354,Motor,
0.025,1,0.0115,0,x,x,0.48624734994245955,73,7,2,2021_May_21_1354,Motor,
0.0425,1,0.020000000000000007,0,x,x,0.5491874821682359,74,7,2,2021_May_21_1354,Motor,
0.025,1,0.0115,0,x,x,0.44188997035143984,75,7,2,2021_May_21_1354,Motor,
0.025,1,0.0115,0,x,x,0.4414959897303561,76,7,2,2021_May_21_1354,Motor,
0.0425,1,0.020000000000000007,90,n,n,0.39434349811017455,77,7,2,2021_May_21_1354,Motor,
0.025,1,0.007,90,n,n,0.7073645576410854,78,7,2,2021_May_21_1354,Motor,
0.0425,1,0.020000000000000007,0,x,x,0.608250783641779,79,7,2,2021_May_21_1354,Motor,
0.025,1,0.007,0,x,x,0.9979625134737944,80,7,2,2021_May_21_1354,Motor,
0.0425,1,0.015500000000000007,0,x,x,0.5877330716011784,81,7,2,2021_May_21_1354,Motor,
0.025,1,0.007,90,n,n,0.5425151553899923,82,7,2,2021_May_21_1354,Motor,
0.0425,1,0.015500000000000007,90,n,n,0.5033666911276669,83,7,2,2021_May_21_1354,Motor,
0.025,1,0.0025000000000000005,0,x,x,0.6372152712419847,84,7,2,2021_May_21_1354,Motor,
0.0425,1,0.015500000000000007,0,x,x,0.5620605877684284,85,7,2,2021_May_21_1354,Motor,
0.025,1,0.0025000000000000005,90,n,n,0.5899103329284117,86,7,2,2021_May_21_1354,Motor,
0.0425,0,0.011000000000000006,0,n,x,0.7247427126058028,87,7,2,2021_May_21_1354,Motor,
0.025,1,0.0025000000000000005,0,x,x,0.7775023241401868,88,7,2,2021_May_21_1354,Motor,
0.0425,1,0.015500000000000007,90,n,n,0.6693147079568007,89,7,2,2021_May_21_1354,Motor,
0.025,1,0.0005,90,n,n,0.7533174435493493,90,7,2,2021_May_21_1354,Motor,
0.0425,1,0.015500000000000007,90,n,n,0.5091028339338663,91,7,2,2021_May_21_1354,Motor,
0.025,0,0.0005,0,n,x,0.7588070604706445,92,7,2,2021_May_21_1354,Motor,
0.0425,1,0.015500000000000007,90,n,n,0.5305759297807526,93,7,2,2021_May_21_1354,Motor,
0.0425,1,0.011000000000000006,90,n,n,0.455469629892832,94,7,2,2021_May_21_1354,Motor,
0.025,0,0.004999999999999999,0,n,x,0.41927141232827125,95,7,2,2021_May_21_1354,Motor,
0.0425,0,0.011000000000000006,90,x,n,0.8222029967864728,96,7,2,2021_May_21_1354,Motor,
0.025,0,0.009499999999999998,90,x,n,0.6336917174603514,97,7,2,2021_May_21_1354,Motor,
0.0425,1,0.015500000000000007,0,x,x,0.5424533319201146,98,7,2,2021_May_21_1354,Motor,
0.025,1,0.013999999999999999,90,n,n,0.9953175441569329,99,7,2,2021_May_21_1354,Motor,
0.0425,1,0.015500000000000007,90,n,n,0.6301769956025964,100,7,2,2021_May_21_1354,Motor,
0.0425,1,0.015500000000000007,0,x,x,0.5706951377187579,101,7,2,2021_May_21_1354,Motor,
0.025,1,0.013999999999999999,0,x,x,0.4509338607913378,102,7,2,2021_May_21_1354,Motor,
0.0425,0,0.011000000000000006,0,n,x,0.7135822323180037,103,7,2,2021_May_21_1354,Motor,
0.025,1,0.013999999999999999,90,n,n,0.623395613759385,104,7,2,2021_May_21_1354,Motor,
0.0425,1,0.015500000000000007,90,n,n,0.6571558362320502,105,7,2,2021_May_21_1354,Motor,
0.025,1,0.009499999999999998,90,n,n,0.6730529158985519,106,7,2,2021_May_21_1354,Motor,
0.0425,1,0.015500000000000007,0,x,x,0.5009597997686797,107,7,2,2021_May_21_1354,Motor,
0.025,0,0.009499999999999998,0,n,x,0.7667266085527444,108,7,2,2021_May_21_1354,Motor,
0.025,0,0.013999999999999999,90,x,n,0.8894446601225354,109,7,2,2021_May_21_1354,Motor,
0.0425,1,0.015500000000000007,0,x,x,0.485362237533991,110,7,2,2021_May_21_1354,Motor,
0.0425,0,0.011000000000000006,0,n,x,0.7312103691401717,111,7,2,2021_May_21_1354,Motor,
0.025,1,0.0185,90,n,n,0.7000455804090961,112,7,2,2021_May_21_1354,Motor,
0.025,1,0.0185,90,n,n,0.44676826451541274,113,7,2,2021_May_21_1354,Motor,
0.0425,1,0.015500000000000007,0,x,x,0.518724255421148,114,7,2,2021_May_21_1354,Motor,
0.025,1,0.0185,0,x,x,0.4525454949698542,115,7,2,2021_May_21_1354,Motor,
0.0425,1,0.015500000000000007,0,x,x,0.368292777521674,116,7,2,2021_May_21_1354,Motor,
