subject_id,trial,effector_order,block,condition,stim1,gabor.contrast,pressed_gabor,expected_gabor,pressed_cue,expected_cue,rt_gabor,rt_cue,accuracy_gabor,accuracy_cue,congruency,SDT,pressed_conf,conf,rt_conf,trial_start_time_rel2bloc,bloc_start_time_rel2exp,exp_start_date,effector
9,1,hand2,1,cue,yellow,-1,-1,-1,4,4,-1,0.1743349660628155,-1,1,none,none,-1,-1,-1,0,16035,11:09:06.135461,hand
9,2,hand2,1,cue,yellow,-1,-1,-1,4,4,-1,0.1421645877398987,-1,1,none,none,-1,-1,-1,2667,16035,11:09:06.135461,hand
9,3,hand2,1,cue,blue,-1,-1,-1,3,3,-1,0.14606401590026508,-1,1,none,none,-1,-1,-1,5351,16035,11:09:06.135461,hand
9,4,hand2,1,cue,blue,-1,-1,-1,3,3,-1,0.16983036815508967,-1,1,none,none,-1,-1,-1,7834,16035,11:09:06.135461,hand
9,5,hand2,1,cue,yellow,-1,-1,-1,4,4,-1,0.11075067160072649,-1,1,none,none,-1,-1,-1,10534,16035,11:09:06.135461,hand
9,6,hand2,1,cue,yellow,-1,-1,-1,4,4,-1,0.06362038961287908,-1,1,none,none,-1,-1,-1,13184,16035,11:09:06.135461,hand
9,7,hand2,1,cue,yellow,-1,-1,-1,4,4,-1,0.12647817318611487,-1,1,none,none,-1,-1,-1,15583,16035,11:09:06.135461,hand
9,8,hand2,1,cue,yellow,-1,-1,-1,4,4,-1,0.08725388099719567,-1,1,none,none,-1,-1,-1,18250,16035,11:09:06.135461,hand
9,9,hand2,1,cue,blue,-1,-1,-1,3,3,-1,0.1251522524144093,-1,1,none,none,-1,-1,-1,20666,16035,11:09:06.135461,hand
9,10,hand2,1,cue,blue,-1,-1,-1,3,3,-1,0.22880677114244463,-1,1,none,none,-1,-1,-1,26799,16035,11:09:06.135461,hand
9,11,hand2,1,cue,blue,-1,-1,-1,3,3,-1,0.16872831411001243,-1,1,none,none,-1,-1,-1,29366,16035,11:09:06.135461,hand
9,12,hand2,1,gabor,0,0.008029655748246354,3,4,-1,4,0.2773789391712853,-1,0,-1,incongruent,miss,q,1,1.7073812277576508,32066,16035,11:09:06.135461,hand
9,13,hand2,1,gabor,90,0.008029655748246354,4,3,-1,4,0.5262069987729774,-1,0,-1,congruent,FA,3,1,4.7940403067623265,37299,16035,11:09:06.135461,hand
9,14,hand2,1,cue,yellow,-1,-1,-1,4,4,-1,0.22064849928665353,-1,1,none,none,-1,-1,-1,46050,16035,11:09:06.135461,hand
9,15,hand2,1,gabor,90,0.008029655748246354,3,3,-1,4,0.39453457992203766,-1,1,-1,incongruent,CR,c,2,1.814440210304383,48698,16035,11:09:06.135461,hand
9,16,hand2,1,gabor,90,0.008029655748246354,3,3,-1,3,0.5943461939586996,-1,1,-1,congruent,CR,q,1,2.437138376517396,54148,16035,11:09:06.135461,hand
9,17,hand2,1,cue,blue,-1,-1,-1,3,3,-1,0.735809230220184,-1,1,none,none,-1,-1,-1,60415,16035,11:09:06.135461,hand
9,18,hand2,1,gabor,90,0.008029655748246354,3,3,-1,3,0.3516627576391329,-1,1,-1,congruent,CR,q,2,1.8655236791864809,63682,16035,11:09:06.135461,hand
9,19,hand2,1,cue,blue,-1,-1,-1,3,3,-1,0.28135785345966724,-1,1,none,none,-1,-1,-1,69148,16035,11:09:06.135461,hand
9,20,hand2,1,cue,yellow,-1,-1,-1,4,4,-1,0.20428050078589877,-1,1,none,none,-1,-1,-1,71965,16035,11:09:06.135461,hand
9,21,hand2,1,cue,yellow,-1,-1,-1,4,4,-1,0.15911740446699696,-1,1,none,none,-1,-1,-1,74498,16035,11:09:06.135461,hand
9,22,hand2,1,cue,blue,-1,-1,-1,3,3,-1,0.17192043093018583,-1,1,none,none,-1,-1,-1,77199,16035,11:09:06.135461,hand
9,23,hand2,1,gabor,0,0.008029655748246354,3,4,-1,4,0.4537847684614462,-1,0,-1,incongruent,miss,c,2,3.084591287706644,79915,16035,11:09:06.135461,hand
9,24,hand2,1,cue,yellow,-1,-1,-1,4,4,-1,0.17334580535953137,-1,1,none,none,-1,-1,-1,86797,16035,11:09:06.135461,hand
9,25,hand2,1,cue,yellow,-1,-1,-1,4,4,-1,0.15823883315897547,-1,1,none,none,-1,-1,-1,89313,16035,11:09:06.135461,hand
9,26,hand2,1,cue,blue,-1,-1,-1,3,3,-1,0.03190696052752173,-1,1,none,none,-1,-1,-1,91814,16035,11:09:06.135461,hand
9,27,hand2,1,cue,yellow,-1,-1,-1,4,4,-1,0.13200265107388987,-1,1,none,none,-1,-1,-1,94281,16035,11:09:06.135461,hand
9,28,hand2,1,gabor,0,0.008029655748246354,3,4,-1,4,0.612679074182779,-1,0,-1,incongruent,miss,q,1,2.061664339681556,96948,16035,11:09:06.135461,hand
9,29,hand2,1,gabor,90,0.008029655748246354,4,3,-1,4,0.4984505964912387,-1,0,-1,congruent,FA,c,1,2.7223380594941773,102946,16035,11:09:06.135461,hand
9,30,hand2,1,cue,blue,-1,-1,-1,3,3,-1,0.19877791038288706,-1,1,none,none,-1,-1,-1,113079,16035,11:09:06.135461,hand
9,31,hand2,1,gabor,0,0.008029655748246354,3,4,-1,3,0.6576609267704043,-1,0,-1,congruent,miss,4,1,1.4756223341428267,115613,16035,11:09:06.135461,hand
9,32,hand2,1,cue,blue,-1,-1,-1,3,3,-1,0.27138522433506296,-1,1,none,none,-1,-1,-1,121079,16035,11:09:06.135461,hand
9,33,hand2,1,gabor,90,0.008029655748246354,3,3,-1,3,0.5992781738004851,-1,1,-1,congruent,CR,4,4,2.796144193212058,123679,16035,11:09:06.135461,hand
9,34,hand2,1,cue,blue,-1,-1,-1,4,3,-1,0.5578524614584239,-1,0,none,none,-1,-1,-1,130413,16035,11:09:06.135461,hand
9,35,hand2,1,gabor,0,0.008029655748246354,3,4,-1,3,0.45871790027558745,-1,0,-1,congruent,miss,q,2,3.1745542248991114,133313,16035,11:09:06.135461,hand
9,36,hand2,1,gabor,0,0.008029655748246354,3,4,-1,3,0.6261913319412997,-1,0,-1,congruent,miss,q,1,1.9162177812395385,140379,16035,11:09:06.135461,hand
9,37,hand2,2,cue,blue,-1,-1,-1,3,3,-1,0.19170710091475485,-1,1,none,none,-1,-1,-1,150745,16035,11:09:06.135461,hand
9,38,hand2,2,cue,blue,-1,-1,-1,3,3,-1,0.19853830002648465,-1,1,none,none,-1,-1,-1,153395,16035,11:09:06.135461,hand
9,39,hand2,2,cue,blue,-1,-1,-1,3,3,-1,0.22337022718420485,-1,1,none,none,-1,-1,-1,155928,16035,11:09:06.135461,hand
9,40,hand2,2,cue,yellow,-1,-1,-1,4,4,-1,0.16220661170973472,-1,1,none,none,-1,-1,-1,158495,16035,11:09:06.135461,hand
9,41,hand2,2,gabor,0,0.008029655748246354,4,4,-1,3,0.506027890030964,-1,1,-1,incongruent,hit,q,2,4.321979488739089,160995,16035,11:09:06.135461,hand
9,42,hand2,2,cue,blue,-1,-1,-1,3,3,-1,0.21671335996688867,-1,1,none,none,-1,-1,-1,169161,16035,11:09:06.135461,hand
9,43,hand2,2,cue,blue,-1,-1,-1,3,3,-1,0.20054158084440132,-1,1,none,none,-1,-1,-1,171912,16035,11:09:06.135461,hand
9,44,hand2,2,gabor,0,0.008029655748246354,4,4,-1,4,0.5921278782043373,-1,1,-1,congruent,hit,4,2,3.994151817736565,174544,16035,11:09:06.135461,hand
9,45,hand2,2,cue,yellow,-1,-1,-1,3,4,-1,0.2418417281432994,-1,0,none,none,-1,-1,-1,182461,16035,11:09:06.135461,hand
9,46,hand2,2,gabor,90,0.008029655748246354,3,3,-1,4,0.5926382021852987,-1,1,-1,incongruent,CR,c,1,3.781527961453321,185229,16035,11:09:06.135461,hand
9,47,hand2,2,cue,yellow,-1,-1,-1,3,4,-1,0.28621572304746223,-1,0,none,none,-1,-1,-1,192843,16035,11:09:06.135461,hand
9,48,hand2,2,cue,yellow,-1,-1,-1,4,4,-1,0.15221670299160905,-1,1,none,none,-1,-1,-1,195561,16035,11:09:06.135461,hand
9,49,hand2,2,gabor,0,0.008029655748246354,4,4,-1,3,0.321762533848414,-1,1,-1,incongruent,hit,q,3,4.8736078407882815,201810,16035,11:09:06.135461,hand
9,50,hand2,2,cue,yellow,-1,-1,-1,4,4,-1,0.16628881956512487,-1,1,none,none,-1,-1,-1,210343,16035,11:09:06.135461,hand
9,51,hand2,2,cue,blue,-1,-1,-1,3,3,-1,0.1960968855264582,-1,1,none,none,-1,-1,-1,213044,16035,11:09:06.135461,hand
9,52,hand2,2,cue,yellow,-1,-1,-1,4,4,-1,0.18199097774868278,-1,1,none,none,-1,-1,-1,215577,16035,11:09:06.135461,hand
9,53,hand2,2,cue,yellow,-1,-1,-1,4,4,-1,0.16977392148419312,-1,1,none,none,-1,-1,-1,218193,16035,11:09:06.135461,hand
9,54,hand2,2,cue,blue,-1,-1,-1,3,3,-1,0.1496424276219841,-1,1,none,none,-1,-1,-1,220894,16035,11:09:06.135461,hand
9,55,hand2,2,cue,yellow,-1,-1,-1,4,4,-1,0.08958048220029013,-1,1,none,none,-1,-1,-1,223577,16035,11:09:06.135461,hand
9,56,hand2,2,gabor,90,0.008029655748246354,4,3,-1,3,0.44620325102096103,-1,0,-1,incongruent,FA,4,1,1.2971798168209716,226193,16035,11:09:06.135461,hand
9,57,hand2,2,cue,yellow,-1,-1,-1,4,4,-1,0.3192608327690323,-1,1,none,none,-1,-1,-1,231176,16035,11:09:06.135461,hand
9,58,hand2,2,cue,blue,-1,-1,-1,3,3,-1,0.16501665752730332,-1,1,none,none,-1,-1,-1,233926,16035,11:09:06.135461,hand
9,59,hand2,2,gabor,0,0.008029655748246354,3,4,-1,4,0.3997384253607379,-1,0,-1,incongruent,miss,c,2,1.9437399490370808,236626,16035,11:09:06.135461,hand
9,60,hand2,2,gabor,90,0.008029655748246354,3,3,-1,3,0.6954836519689707,-1,1,-1,congruent,CR,3,1,1.4753343409256559,242292,16035,11:09:06.135461,hand
9,61,hand2,2,cue,blue,-1,-1,-1,3,3,-1,0.18825771015417558,-1,1,none,none,-1,-1,-1,247692,16035,11:09:06.135461,hand
9,62,hand2,2,cue,yellow,-1,-1,-1,4,4,-1,0.18610889676347142,-1,1,none,none,-1,-1,-1,250209,16035,11:09:06.135461,hand
9,63,hand2,2,cue,blue,-1,-1,-1,3,3,-1,0.12073558843530918,-1,1,none,none,-1,-1,-1,252926,16035,11:09:06.135461,hand
9,64,hand2,2,gabor,90,0.008029655748246354,4,3,-1,4,0.2905467570426481,-1,0,-1,congruent,FA,3,2,2.247609272306363,255576,16035,11:09:06.135461,hand
9,65,hand2,2,cue,blue,-1,-1,-1,3,3,-1,0.14039592539484147,-1,1,none,none,-1,-1,-1,261458,16035,11:09:06.135461,hand
9,66,hand2,2,cue,yellow,-1,-1,-1,4,4,-1,0.01322080862337316,-1,1,none,none,-1,-1,-1,264125,16035,11:09:06.135461,hand
9,67,hand2,2,cue,yellow,-1,-1,-1,4,4,-1,0.13318572720982047,-1,1,none,none,-1,-1,-1,266575,16035,11:09:06.135461,hand
9,68,hand2,2,gabor,90,0.008029655748246354,3,3,-1,3,0.5524884917913369,-1,1,-1,congruent,CR,3,1,2.662552203570158,271974,16035,11:09:06.135461,hand
9,69,hand2,2,gabor,0,0.008029655748246354,4,4,-1,3,0.36833257303078426,-1,1,-1,incongruent,hit,3,3,4.2873408165496585,278625,16035,11:09:06.135461,hand
9,70,hand2,2,gabor,0,0.008029655748246354,4,4,-1,4,0.49070127500363014,-1,1,-1,congruent,hit,c,3,2.350618302237308,290190,16035,11:09:06.135461,hand
9,71,hand2,2,cue,blue,-1,-1,-1,3,3,-1,0.2823435582449747,-1,1,none,none,-1,-1,-1,296474,16035,11:09:06.135461,hand
9,72,hand2,2,gabor,90,0.008029655748246354,3,3,-1,4,0.26516956272644165,-1,1,-1,incongruent,CR,q,3,4.963064293910065,299090,16035,11:09:06.135461,hand
9,73,hand2,3,cue,yellow,-1,-1,-1,4,4,-1,0.24165549252938945,-1,1,none,none,-1,-1,-1,310356,16035,11:09:06.135461,hand
9,74,hand2,3,gabor,0,0.008029655748246354,4,4,-1,3,0.4233642369254085,-1,1,-1,incongruent,hit,3,1,1.6743050147679241,313040,16035,11:09:06.135461,hand
9,75,hand2,3,cue,yellow,-1,-1,-1,4,4,-1,0.21225138505542418,-1,1,none,none,-1,-1,-1,318474,16035,11:09:06.135461,hand
9,76,hand2,3,cue,blue,-1,-1,-1,3,3,-1,0.17176222665602836,-1,1,none,none,-1,-1,-1,323856,16035,11:09:06.135461,hand
9,77,hand2,3,cue,blue,-1,-1,-1,3,3,-1,0.16965757222533284,-1,1,none,none,-1,-1,-1,326356,16035,11:09:06.135461,hand
9,78,hand2,3,cue,blue,-1,-1,-1,3,3,-1,0.17660435261495877,-1,1,none,none,-1,-1,-1,328856,16035,11:09:06.135461,hand
9,79,hand2,3,cue,yellow,-1,-1,-1,4,4,-1,0.14634548127196467,-1,1,none,none,-1,-1,-1,331556,16035,11:09:06.135461,hand
9,80,hand2,3,gabor,0,0.008029655748246354,4,4,-1,4,0.4050789715802239,-1,1,-1,congruent,hit,c,2,4.896914555868534,334240,16035,11:09:06.135461,hand
9,81,hand2,3,cue,yellow,-1,-1,-1,4,4,-1,0.36968882908877276,-1,1,none,none,-1,-1,-1,342789,16035,11:09:06.135461,hand
9,82,hand2,3,cue,blue,-1,-1,-1,3,3,-1,0.16657258888244542,-1,1,none,none,-1,-1,-1,345489,16035,11:09:06.135461,hand
9,83,hand2,3,cue,yellow,-1,-1,-1,4,4,-1,0.1423504393624171,-1,1,none,none,-1,-1,-1,347988,16035,11:09:06.135461,hand
9,84,hand2,3,cue,yellow,-1,-1,-1,4,4,-1,0.19235796558496077,-1,1,none,none,-1,-1,-1,350555,16035,11:09:06.135461,hand
9,85,hand2,3,cue,yellow,-1,-1,-1,4,4,-1,0.18108053519063105,-1,1,none,none,-1,-1,-1,353172,16035,11:09:06.135461,hand
9,86,hand2,3,cue,blue,-1,-1,-1,3,3,-1,0.16392919513964443,-1,1,none,none,-1,-1,-1,358721,16035,11:09:06.135461,hand
9,87,hand2,3,cue,blue,-1,-1,-1,3,3,-1,0.19760980989394739,-1,1,none,none,-1,-1,-1,361423,16035,11:09:06.135461,hand
9,88,hand2,3,cue,blue,-1,-1,-1,3,3,-1,0.04645484189495619,-1,1,none,none,-1,-1,-1,364055,16035,11:09:06.135461,hand
9,89,hand2,3,cue,blue,-1,-1,-1,3,3,-1,0.14844168790114054,-1,1,none,none,-1,-1,-1,366438,16035,11:09:06.135461,hand
9,90,hand2,3,gabor,90,0.008029655748246354,4,3,-1,4,0.5532818171059262,-1,0,-1,congruent,FA,4,1,2.806180948826295,369122,16035,11:09:06.135461,hand
9,91,hand2,3,gabor,90,0.008029655748246354,3,3,-1,3,0.5967077383393189,-1,1,-1,congruent,CR,q,1,1.3797797274273762,375821,16035,11:09:06.135461,hand
9,92,hand2,3,cue,yellow,-1,-1,-1,4,4,-1,0.20258710066900676,-1,1,none,none,-1,-1,-1,381038,16035,11:09:06.135461,hand
9,93,hand2,3,gabor,0,0.008029655748246354,4,4,-1,4,0.3843188845212353,-1,1,-1,congruent,hit,3,2,3.6583194712602563,383771,16035,11:09:06.135461,hand
9,94,hand2,3,gabor,90,0.008029655748246354,4,3,-1,3,0.35681361232582276,-1,0,-1,incongruent,FA,4,1,3.489556597963201,394820,16035,11:09:06.135461,hand
9,95,hand2,3,gabor,0,0.008029655748246354,4,4,-1,3,0.4692446283506797,-1,1,-1,incongruent,hit,3,1,1.103290111311253,402104,16035,11:09:06.135461,hand
9,96,hand2,3,gabor,0,0.008029655748246354,4,4,-1,3,0.6290935355891634,-1,1,-1,incongruent,hit,4,1,2.497890353686671,406920,16035,11:09:06.135461,hand
9,97,hand2,3,cue,blue,-1,-1,-1,4,3,-1,0.6435776744583563,-1,0,none,none,-1,-1,-1,413488,16035,11:09:06.135461,hand
9,98,hand2,3,cue,yellow,-1,-1,-1,3,4,-1,0.21845975083579106,-1,0,none,none,-1,-1,-1,416453,16035,11:09:06.135461,hand
9,99,hand2,3,gabor,0,0.008029655748246354,4,4,-1,4,0.49630869493830687,-1,1,-1,congruent,hit,3,3,2.5923383052486315,419103,16035,11:09:06.135461,hand
9,100,hand2,3,cue,yellow,-1,-1,-1,4,4,-1,0.6047888280136249,-1,1,none,none,-1,-1,-1,429086,16035,11:09:06.135461,hand
9,101,hand2,3,cue,yellow,-1,-1,-1,4,4,-1,0.21462291320131044,-1,1,none,none,-1,-1,-1,432119,16035,11:09:06.135461,hand
9,102,hand2,3,gabor,90,0.008029655748246354,3,3,-1,3,0.3353742452654842,-1,1,-1,congruent,CR,3,1,4.692375629168964,434770,16035,11:09:06.135461,hand
9,103,hand2,3,cue,yellow,-1,-1,-1,4,4,-1,0.19392157675883936,-1,1,none,none,-1,-1,-1,443237,16035,11:09:06.135461,hand
9,104,hand2,3,cue,blue,-1,-1,-1,3,3,-1,0.18679624057494948,-1,1,none,none,-1,-1,-1,445769,16035,11:09:06.135461,hand
9,105,hand2,3,cue,blue,-1,-1,-1,3,3,-1,0.16265780108278705,-1,1,none,none,-1,-1,-1,448285,16035,11:09:06.135461,hand
9,106,hand2,3,cue,blue,-1,-1,-1,3,3,-1,0.15551672127003258,-1,1,none,none,-1,-1,-1,450885,16035,11:09:06.135461,hand
9,107,hand2,3,gabor,90,0.008029655748246354,3,3,-1,4,0.5094346577943725,-1,1,-1,incongruent,CR,4,1,1.2271448582841913,453569,16035,11:09:06.135461,hand
9,108,hand2,3,gabor,90,0.008029655748246354,4,3,-1,4,0.4190954094656263,-1,0,-1,congruent,FA,q,2,1.448991793345158,458736,16035,11:09:06.135461,hand
9,109,hand2,4,gabor,0,0.008029655748246354,4,4,-1,3,0.4536380839153935,-1,1,-1,incongruent,hit,c,2,2.198464957752549,484984,16035,11:09:06.135461,hand
9,110,hand2,4,cue,blue,-1,-1,-1,3,3,-1,0.21421895471485186,-1,1,none,none,-1,-1,-1,491151,16035,11:09:06.135461,hand
9,111,hand2,4,gabor,0,0.008029655748246354,4,4,-1,4,0.46195648000048095,-1,1,-1,congruent,hit,c,1,3.872981935529424,493701,16035,11:09:06.135461,hand
9,112,hand2,4,cue,blue,-1,-1,-1,3,3,-1,0.17865371234711347,-1,1,none,none,-1,-1,-1,501485,16035,11:09:06.135461,hand
9,113,hand2,4,cue,blue,-1,-1,-1,3,3,-1,0.17050657622894505,-1,1,none,none,-1,-1,-1,504201,16035,11:09:06.135461,hand
9,114,hand2,4,cue,yellow,-1,-1,-1,4,4,-1,0.17121964743546414,-1,1,none,none,-1,-1,-1,506901,16035,11:09:06.135461,hand
9,115,hand2,4,cue,blue,-1,-1,-1,3,3,-1,0.15312599357639556,-1,1,none,none,-1,-1,-1,509401,16035,11:09:06.135461,hand
9,116,hand2,4,cue,yellow,-1,-1,-1,4,4,-1,0.15008363323067897,-1,1,none,none,-1,-1,-1,512085,16035,11:09:06.135461,hand
9,117,hand2,4,cue,yellow,-1,-1,-1,4,4,-1,0.17374784389085107,-1,1,none,none,-1,-1,-1,517400,16035,11:09:06.135461,hand
9,118,hand2,4,cue,yellow,-1,-1,-1,4,4,-1,0.13859961570142332,-1,1,none,none,-1,-1,-1,519900,16035,11:09:06.135461,hand
9,119,hand2,4,cue,blue,-1,-1,-1,3,3,-1,0.15543070729563624,-1,1,none,none,-1,-1,-1,522366,16035,11:09:06.135461,hand
9,120,hand2,4,cue,yellow,-1,-1,-1,3,4,-1,0.0953729857756116,-1,0,none,none,-1,-1,-1,525050,16035,11:09:06.135461,hand
9,121,hand2,4,cue,blue,-1,-1,-1,4,3,-1,0.14425618647783267,-1,0,none,none,-1,-1,-1,527467,16035,11:09:06.135461,hand
9,122,hand2,4,gabor,0,0.008029655748246354,4,4,-1,3,0.43989619956482784,-1,1,-1,incongruent,hit,c,1,3.5227771915515405,529933,16035,11:09:06.135461,hand
9,123,hand2,4,gabor,90,0.008029655748246354,4,3,-1,4,0.45555074286858144,-1,0,-1,congruent,FA,3,1,0.9525126064236247,537232,16035,11:09:06.135461,hand
9,124,hand2,4,cue,yellow,-1,-1,-1,4,4,-1,0.26231766189448535,-1,1,none,none,-1,-1,-1,541982,16035,11:09:06.135461,hand
9,125,hand2,4,gabor,90,0.008029655748246354,4,3,-1,3,0.5401397266296044,-1,0,-1,incongruent,FA,c,2,3.085070124428057,544583,16035,11:09:06.135461,hand
9,126,hand2,4,cue,blue,-1,-1,-1,3,3,-1,0.19276998788154742,-1,1,none,none,-1,-1,-1,551449,16035,11:09:06.135461,hand
9,127,hand2,4,cue,yellow,-1,-1,-1,4,4,-1,0.1876559963257023,-1,1,none,none,-1,-1,-1,554065,16035,11:09:06.135461,hand
9,128,hand2,4,cue,blue,-1,-1,-1,3,3,-1,0.1425251552473128,-1,1,none,none,-1,-1,-1,556582,16035,11:09:06.135461,hand
9,129,hand2,4,cue,blue,-1,-1,-1,3,3,-1,0.13537562763303868,-1,1,none,none,-1,-1,-1,559249,16035,11:09:06.135461,hand
9,130,hand2,4,gabor,90,0.008029655748246354,3,3,-1,3,0.5470949548198405,-1,1,-1,congruent,CR,3,1,0.9552063029814235,561715,16035,11:09:06.135461,hand
9,131,hand2,4,gabor,0,0.008029655748246354,4,4,-1,4,0.39004956555254466,-1,1,-1,congruent,hit,4,3,2.3498096172834266,566548,16035,11:09:06.135461,hand
9,132,hand2,4,cue,blue,-1,-1,-1,3,3,-1,0.2175834834743,-1,1,none,none,-1,-1,-1,572631,16035,11:09:06.135461,hand
9,133,hand2,4,gabor,90,0.008029655748246354,3,3,-1,4,0.44138109259256453,-1,1,-1,incongruent,CR,q,2,1.8301876794203054,575281,16035,11:09:06.135461,hand
9,134,hand2,4,gabor,90,0.008029655748246354,4,3,-1,3,0.7990867159096524,-1,0,-1,incongruent,FA,3,2,2.52200037784678,580798,16035,11:09:06.135461,hand
9,135,hand2,4,cue,yellow,-1,-1,-1,4,4,-1,0.29770972434016585,-1,1,none,none,-1,-1,-1,587464,16035,11:09:06.135461,hand
9,136,hand2,4,gabor,0,0.008029655748246354,4,4,-1,3,0.45256022130161,-1,1,-1,incongruent,hit,q,1,1.6455110689239518,590097,16035,11:09:06.135461,hand
9,137,hand2,4,cue,yellow,-1,-1,-1,4,4,-1,0.2132624332434716,-1,1,none,none,-1,-1,-1,595530,16035,11:09:06.135461,hand
9,138,hand2,4,cue,yellow,-1,-1,-1,4,4,-1,0.16719273427588632,-1,1,none,none,-1,-1,-1,598282,16035,11:09:06.135461,hand
9,139,hand2,4,cue,blue,-1,-1,-1,3,3,-1,0.15204160311623127,-1,1,none,none,-1,-1,-1,600781,16035,11:09:06.135461,hand
9,140,hand2,4,cue,blue,-1,-1,-1,3,3,-1,0.1688124081301794,-1,1,none,none,-1,-1,-1,603364,16035,11:09:06.135461,hand
9,141,hand2,4,cue,yellow,-1,-1,-1,4,4,-1,0.15466042143816594,-1,1,none,none,-1,-1,-1,606065,16035,11:09:06.135461,hand
9,142,hand2,4,gabor,90,0.008029655748246354,4,3,-1,4,0.4174930152048546,-1,0,-1,congruent,FA,3,1,2.598414962130846,608647,16035,11:09:06.135461,hand
9,143,hand2,4,gabor,0,0.008029655748246354,4,4,-1,4,0.4511448306366219,-1,1,-1,congruent,hit,4,1,0.8060680554854116,615115,16035,11:09:06.135461,hand
9,144,hand2,4,cue,yellow,-1,-1,-1,4,4,-1,0.35375013247630704,-1,1,none,none,-1,-1,-1,619714,16035,11:09:06.135461,hand
9,145,hand2,5,cue,yellow,-1,-1,-1,4,4,-1,0.23053549842825305,-1,1,none,none,-1,-1,-1,628447,16035,11:09:06.135461,hand
9,146,hand2,5,cue,yellow,-1,-1,-1,4,4,-1,0.13627762238957075,-1,1,none,none,-1,-1,-1,631029,16035,11:09:06.135461,hand
9,147,hand2,5,cue,blue,-1,-1,-1,3,3,-1,0.138214856763625,-1,1,none,none,-1,-1,-1,633596,16035,11:09:06.135461,hand
9,148,hand2,5,cue,blue,-1,-1,-1,3,3,-1,0.12509926166148944,-1,1,none,none,-1,-1,-1,636163,16035,11:09:06.135461,hand
9,149,hand2,5,cue,yellow,-1,-1,-1,4,4,-1,0.15086313487154257,-1,1,none,none,-1,-1,-1,638613,16035,11:09:06.135461,hand
9,150,hand2,5,cue,yellow,-1,-1,-1,4,4,-1,0.1326500598261191,-1,1,none,none,-1,-1,-1,641096,16035,11:09:06.135461,hand
9,151,hand2,5,cue,yellow,-1,-1,-1,4,4,-1,0.1515028638050353,-1,1,none,none,-1,-1,-1,643763,16035,11:09:06.135461,hand
9,152,hand2,5,cue,blue,-1,-1,-1,3,3,-1,0.1693615151971244,-1,1,none,none,-1,-1,-1,646345,16035,11:09:06.135461,hand
9,153,hand2,5,gabor,0,0.008029655748246354,4,4,-1,3,0.39412639753572876,-1,1,-1,incongruent,hit,3,4,2.216077086952282,648945,16035,11:09:06.135461,hand
9,154,hand2,5,gabor,0,0.008029655748246354,3,4,-1,4,0.2649245764969237,-1,0,-1,incongruent,miss,q,1,2.1186651091993554,654895,16035,11:09:06.135461,hand
9,155,hand2,5,gabor,90,0.008029655748246354,4,3,-1,3,0.47949027504455444,-1,0,-1,incongruent,FA,q,2,2.4464505411961,660712,16035,11:09:06.135461,hand
9,156,hand2,5,cue,blue,-1,-1,-1,3,3,-1,0.25422889240053337,-1,1,none,none,-1,-1,-1,666862,16035,11:09:06.135461,hand
9,157,hand2,5,gabor,0,0.008029655748246354,4,4,-1,4,0.3950844549708563,-1,1,-1,congruent,hit,3,1,2.748911385639076,669445,16035,11:09:06.135461,hand
9,158,hand2,5,gabor,90,0.008029655748246354,4,3,-1,4,0.5736417855887339,-1,0,-1,congruent,FA,4,1,0.9885766530424007,675928,16035,11:09:06.135461,hand
9,159,hand2,5,cue,blue,-1,-1,-1,3,3,-1,0.6223349107676768,-1,1,none,none,-1,-1,-1,680928,16035,11:09:06.135461,hand
9,160,hand2,5,cue,yellow,-1,-1,-1,4,4,-1,0.21130100743903313,-1,1,none,none,-1,-1,-1,683977,16035,11:09:06.135461,hand
9,161,hand2,5,cue,yellow,-1,-1,-1,4,4,-1,0.1621651406867386,-1,1,none,none,-1,-1,-1,686729,16035,11:09:06.135461,hand
9,162,hand2,5,cue,blue,-1,-1,-1,3,3,-1,0.13474165856405307,-1,1,none,none,-1,-1,-1,692161,16035,11:09:06.135461,hand
9,163,hand2,5,cue,blue,-1,-1,-1,3,3,-1,0.07761647597635601,-1,1,none,none,-1,-1,-1,694828,16035,11:09:06.135461,hand
9,164,hand2,5,cue,yellow,-1,-1,-1,4,4,-1,0.08144179388273187,-1,1,none,none,-1,-1,-1,697428,16035,11:09:06.135461,hand
9,165,hand2,5,gabor,0,0.008029655748246354,4,4,-1,3,0.29612614563666284,-1,1,-1,incongruent,hit,3,2,2.7252537028252846,699943,16035,11:09:06.135461,hand
9,166,hand2,5,gabor,0,0.008029655748246354,4,4,-1,4,0.4846948884660378,-1,1,-1,congruent,hit,3,1,0.930676576705082,709878,16035,11:09:06.135461,hand
9,167,hand2,5,cue,yellow,-1,-1,-1,3,4,-1,0.19838239969794813,-1,0,none,none,-1,-1,-1,714643,16035,11:09:06.135461,hand
9,168,hand2,5,cue,yellow,-1,-1,-1,4,4,-1,0.20631334890822473,-1,1,none,none,-1,-1,-1,717176,16035,11:09:06.135461,hand
9,169,hand2,5,cue,blue,-1,-1,-1,3,3,-1,0.18928565394435282,-1,1,none,none,-1,-1,-1,719810,16035,11:09:06.135461,hand
9,170,hand2,5,cue,yellow,-1,-1,-1,4,4,-1,0.1521045776325991,-1,1,none,none,-1,-1,-1,722528,16035,11:09:06.135461,hand
9,171,hand2,5,cue,blue,-1,-1,-1,3,3,-1,0.14982712727214675,-1,1,none,none,-1,-1,-1,725211,16035,11:09:06.135461,hand
9,172,hand2,5,gabor,0,0.008029655748246354,4,4,-1,3,0.49560253556956013,-1,1,-1,incongruent,hit,3,1,1.0256287083930147,727894,16035,11:09:06.135461,hand
9,173,hand2,5,cue,yellow,-1,-1,-1,4,4,-1,0.1984415343049477,-1,1,none,none,-1,-1,-1,732642,16035,11:09:06.135461,hand
9,174,hand2,5,cue,blue,-1,-1,-1,3,3,-1,0.1612431784005821,-1,1,none,none,-1,-1,-1,735376,16035,11:09:06.135461,hand
9,175,hand2,5,gabor,90,0.008029655748246354,4,3,-1,3,0.32112779679846426,-1,0,-1,incongruent,FA,q,1,3.6089662656268047,738061,16035,11:09:06.135461,hand
9,176,hand2,5,gabor,90,0.008029655748246354,4,3,-1,4,0.49264042933191377,-1,0,-1,congruent,FA,c,1,1.967578107600275,745326,16035,11:09:06.135461,hand
9,177,hand2,5,gabor,90,0.008029655748246354,4,3,-1,4,0.5523034081497826,-1,0,-1,congruent,FA,3,1,1.2532812027211548,751226,16035,11:09:06.135461,hand
9,178,hand2,5,cue,blue,-1,-1,-1,3,3,-1,0.17622535354075808,-1,1,none,none,-1,-1,-1,756376,16035,11:09:06.135461,hand
9,179,hand2,5,gabor,90,0.008029655748246354,4,3,-1,3,0.48773033697489154,-1,0,-1,incongruent,FA,q,2,1.6886397811558709,761708,16035,11:09:06.135461,hand
9,180,hand2,5,cue,blue,-1,-1,-1,3,3,-1,0.5414591195549292,-1,1,none,none,-1,-1,-1,767326,16035,11:09:06.135461,hand
9,181,hand2,6,cue,yellow,-1,-1,-1,4,4,-1,0.14770711320215923,-1,1,none,none,-1,-1,-1,780841,16035,11:09:06.135461,hand
9,182,hand2,6,cue,yellow,-1,-1,-1,4,4,-1,0.14247523642370652,-1,1,none,none,-1,-1,-1,783374,16035,11:09:06.135461,hand
9,183,hand2,6,cue,yellow,-1,-1,-1,4,4,-1,0.16447062238876242,-1,1,none,none,-1,-1,-1,785841,16035,11:09:06.135461,hand
9,184,hand2,6,cue,yellow,-1,-1,-1,4,4,-1,0.19323231299222243,-1,1,none,none,-1,-1,-1,788440,16035,11:09:06.135461,hand
9,185,hand2,6,cue,blue,-1,-1,-1,3,3,-1,0.24279479369670298,-1,1,none,none,-1,-1,-1,794824,16035,11:09:06.135461,hand
9,186,hand2,6,cue,blue,-1,-1,-1,3,3,-1,0.2296980141518361,-1,1,none,none,-1,-1,-1,797391,16035,11:09:06.135461,hand
9,187,hand2,6,cue,yellow,-1,-1,-1,4,4,-1,0.182541236788893,-1,1,none,none,-1,-1,-1,800057,16035,11:09:06.135461,hand
9,188,hand2,6,cue,blue,-1,-1,-1,3,3,-1,0.3384442529613807,-1,1,none,none,-1,-1,-1,802673,16035,11:09:06.135461,hand
9,189,hand2,6,gabor,90,0.008029655748246354,3,3,-1,4,0.5641322495575878,-1,1,-1,incongruent,CR,4,2,1.3802067253709538,805340,16035,11:09:06.135461,hand
9,190,hand2,6,cue,blue,-1,-1,-1,3,3,-1,0.2420736586809653,-1,1,none,none,-1,-1,-1,810640,16035,11:09:06.135461,hand
9,191,hand2,6,gabor,90,0.008029655748246354,4,3,-1,3,0.567785539515171,-1,0,-1,incongruent,FA,c,1,1.2426630847994602,813408,16035,11:09:06.135461,hand
9,192,hand2,6,gabor,0,0.008029655748246354,4,4,-1,4,0.36146105486932356,-1,1,-1,congruent,hit,c,2,3.2213450588806154,818556,16035,11:09:06.135461,hand
9,193,hand2,6,cue,blue,-1,-1,-1,3,3,-1,0.17617197879735613,-1,1,none,none,-1,-1,-1,825591,16035,11:09:06.135461,hand
9,194,hand2,6,cue,yellow,-1,-1,-1,4,4,-1,0.3147631466981693,-1,1,none,none,-1,-1,-1,831123,16035,11:09:06.135461,hand
9,195,hand2,6,gabor,90,0.008029655748246354,3,3,-1,4,0.3406076580085937,-1,1,-1,incongruent,CR,c,1,1.4545823176767954,833974,16035,11:09:06.135461,hand
9,196,hand2,6,cue,blue,-1,-1,-1,3,3,-1,0.20537065111057018,-1,1,none,none,-1,-1,-1,839005,16035,11:09:06.135461,hand
9,197,hand2,6,cue,blue,-1,-1,-1,3,3,-1,0.2043185158900087,-1,1,none,none,-1,-1,-1,841540,16035,11:09:06.135461,hand
9,198,hand2,6,cue,yellow,-1,-1,-1,4,4,-1,0.16413155837381055,-1,1,none,none,-1,-1,-1,844173,16035,11:09:06.135461,hand
9,199,hand2,6,gabor,0,0.008029655748246354,3,4,-1,3,0.46667188894298306,-1,0,-1,congruent,miss,3,1,0.11066273767119128,849605,16035,11:09:06.135461,hand
9,200,hand2,6,cue,blue,-1,-1,-1,3,3,-1,0.26652274685602606,-1,1,none,none,-1,-1,-1,853522,16035,11:09:06.135461,hand
9,201,hand2,6,cue,yellow,-1,-1,-1,4,4,-1,0.10838874322780612,-1,1,none,none,-1,-1,-1,856323,16035,11:09:06.135461,hand
9,202,hand2,6,cue,blue,-1,-1,-1,3,3,-1,0.19025484711801255,-1,1,none,none,-1,-1,-1,858856,16035,11:09:06.135461,hand
9,203,hand2,6,gabor,0,0.008029655748246354,4,4,-1,4,0.47998485539665126,-1,1,-1,congruent,hit,c,1,2.4729697246166324,861573,16035,11:09:06.135461,hand
9,204,hand2,6,gabor,0,0.008029655748246354,3,4,-1,4,0.4727009309481218,-1,0,-1,incongruent,miss,3,2,1.9536488356625341,867772,16035,11:09:06.135461,hand
9,205,hand2,6,gabor,0,0.008029655748246354,4,4,-1,3,0.4583473490038159,-1,1,-1,incongruent,hit,q,1,2.376285025735342,873639,16035,11:09:06.135461,hand
9,206,hand2,6,gabor,0,0.008029655748246354,4,4,-1,3,0.4219453903424437,-1,1,-1,incongruent,hit,c,2,4.031052196658493,879705,16035,11:09:06.135461,hand
9,207,hand2,6,cue,yellow,-1,-1,-1,4,4,-1,0.4236998450214742,-1,1,none,none,-1,-1,-1,887605,16035,11:09:06.135461,hand
9,208,hand2,6,cue,blue,-1,-1,-1,3,3,-1,0.18948609722338006,-1,1,none,none,-1,-1,-1,890354,16035,11:09:06.135461,hand
9,209,hand2,6,gabor,90,0.008029655748246354,3,3,-1,4,0.409127772222746,-1,1,-1,incongruent,CR,c,1,1.8904036052144875,892870,16035,11:09:06.135461,hand
9,210,hand2,6,gabor,90,0.008029655748246354,3,3,-1,3,0.38588479964164435,-1,1,-1,congruent,CR,c,1,1.4858161420588658,898589,16035,11:09:06.135461,hand
9,211,hand2,6,cue,blue,-1,-1,-1,4,3,-1,0.3496368213536698,-1,0,none,none,-1,-1,-1,903804,16035,11:09:06.135461,hand
9,212,hand2,6,cue,yellow,-1,-1,-1,4,4,-1,0.1824732703898917,-1,1,none,none,-1,-1,-1,906487,16035,11:09:06.135461,hand
9,213,hand2,6,cue,blue,-1,-1,-1,3,3,-1,0.18233426566348498,-1,1,none,none,-1,-1,-1,909003,16035,11:09:06.135461,hand
9,214,hand2,6,gabor,90,0.008029655748246354,4,3,-1,3,0.4692415564231851,-1,0,-1,incongruent,FA,c,2,2.818191801946341,911621,16035,11:09:06.135461,hand
9,215,hand2,6,cue,yellow,-1,-1,-1,4,4,-1,0.1767107181085521,-1,1,none,none,-1,-1,-1,920986,16035,11:09:06.135461,hand
9,216,hand2,6,cue,yellow,-1,-1,-1,4,4,-1,0.16848947173548368,-1,1,none,none,-1,-1,-1,923687,16035,11:09:06.135461,hand
9,217,hand2,7,cue,yellow,-1,-1,-1,4,4,-1,0.14168613500805805,-1,1,none,none,-1,-1,-1,938337,16035,11:09:06.135461,hand
9,218,hand2,7,gabor,90,0.008029655748246354,4,3,-1,3,0.5334801714752757,-1,0,-1,incongruent,FA,c,1,1.6304290561347443,941053,16035,11:09:06.135461,hand
9,219,hand2,7,cue,blue,-1,-1,-1,3,3,-1,0.7472867199030588,-1,1,none,none,-1,-1,-1,946469,16035,11:09:06.135461,hand
9,220,hand2,7,cue,yellow,-1,-1,-1,4,4,-1,0.2360407767673678,-1,1,none,none,-1,-1,-1,949754,16035,11:09:06.135461,hand
9,221,hand2,7,cue,blue,-1,-1,-1,3,3,-1,0.24490520799281512,-1,1,none,none,-1,-1,-1,952319,16035,11:09:06.135461,hand
9,222,hand2,7,cue,yellow,-1,-1,-1,4,4,-1,0.16775835295538855,-1,1,none,none,-1,-1,-1,955002,16035,11:09:06.135461,hand
9,223,hand2,7,gabor,90,0.008029655748246354,4,3,-1,4,0.4184810239348735,-1,0,-1,congruent,FA,4,4,5.500404726467423,957602,16035,11:09:06.135461,hand
9,224,hand2,7,cue,yellow,-1,-1,-1,4,4,-1,0.5701885549187864,-1,1,none,none,-1,-1,-1,966869,16035,11:09:06.135461,hand
9,225,hand2,7,cue,blue,-1,-1,-1,3,3,-1,0.1607593497965354,-1,1,none,none,-1,-1,-1,969969,16035,11:09:06.135461,hand
9,226,hand2,7,cue,yellow,-1,-1,-1,4,4,-1,0.19476482089885394,-1,1,none,none,-1,-1,-1,972653,16035,11:09:06.135461,hand
9,227,hand2,7,cue,yellow,-1,-1,-1,4,4,-1,0.2935799016058809,-1,1,none,none,-1,-1,-1,975268,16035,11:09:06.135461,hand
9,228,hand2,7,gabor,0,0.008029655748246354,4,4,-1,3,0.7723498096174808,-1,1,-1,incongruent,hit,4,2,1.6692655174583706,977884,16035,11:09:06.135461,hand
9,229,hand2,7,cue,blue,-1,-1,-1,3,3,-1,0.18219257300006575,-1,1,none,none,-1,-1,-1,983668,16035,11:09:06.135461,hand
9,230,hand2,7,cue,yellow,-1,-1,-1,4,4,-1,0.17890023454128823,-1,1,none,none,-1,-1,-1,989018,16035,11:09:06.135461,hand
9,231,hand2,7,cue,blue,-1,-1,-1,3,3,-1,0.233623169706334,-1,1,none,none,-1,-1,-1,991719,16035,11:09:06.135461,hand
9,232,hand2,7,cue,yellow,-1,-1,-1,4,4,-1,0.11952294499587879,-1,1,none,none,-1,-1,-1,994284,16035,11:09:06.135461,hand
9,233,hand2,7,cue,blue,-1,-1,-1,3,3,-1,0.17930342504587315,-1,1,none,none,-1,-1,-1,996734,16035,11:09:06.135461,hand
9,234,hand2,7,gabor,90,0.008029655748246354,3,3,-1,4,0.3801368390168136,-1,1,-1,incongruent,CR,c,1,2.4551986231617775,999452,16035,11:09:06.135461,hand
9,235,hand2,7,cue,blue,-1,-1,-1,3,3,-1,0.24293187846797082,-1,1,none,none,-1,-1,-1,1005617,16035,11:09:06.135461,hand
9,236,hand2,7,cue,yellow,-1,-1,-1,4,4,-1,0.15769011008251255,-1,1,none,none,-1,-1,-1,1008184,16035,11:09:06.135461,hand
9,237,hand2,7,cue,blue,-1,-1,-1,3,3,-1,0.1825350929329943,-1,1,none,none,-1,-1,-1,1010667,16035,11:09:06.135461,hand
9,238,hand2,7,cue,blue,-1,-1,-1,3,3,-1,0.12431169621140725,-1,1,none,none,-1,-1,-1,1013384,16035,11:09:06.135461,hand
9,239,hand2,7,cue,blue,-1,-1,-1,3,3,-1,0.1531375133054098,-1,1,none,none,-1,-1,-1,1015933,16035,11:09:06.135461,hand
9,240,hand2,7,gabor,90,0.008029655748246354,4,3,-1,3,0.64492433074156,-1,0,-1,incongruent,FA,3,1,1.7649491519168805,1018517,16035,11:09:06.135461,hand
9,241,hand2,7,gabor,90,0.008029655748246354,4,3,-1,4,0.5657853306238394,-1,0,-1,congruent,FA,q,2,2.1426518722628316,1024283,16035,11:09:06.135461,hand
9,242,hand2,7,gabor,90,0.008029655748246354,4,3,-1,3,0.5103531641625523,-1,0,-1,incongruent,FA,q,2,4.623412005400496,1030333,16035,11:09:06.135461,hand
9,243,hand2,7,gabor,0,0.008029655748246354,4,4,-1,4,0.4238219541457511,-1,1,-1,congruent,hit,c,2,2.1056159445333833,1042566,16035,11:09:06.135461,hand
9,244,hand2,7,cue,blue,-1,-1,-1,3,3,-1,0.23034350294983597,-1,1,none,none,-1,-1,-1,1048332,16035,11:09:06.135461,hand
9,245,hand2,7,cue,yellow,-1,-1,-1,4,4,-1,0.18830570902355248,-1,1,none,none,-1,-1,-1,1050998,16035,11:09:06.135461,hand
9,246,hand2,7,gabor,0,0.008029655748246354,4,4,-1,4,0.4491162064150558,-1,1,-1,congruent,hit,3,2,3.0979810523504057,1053717,16035,11:09:06.135461,hand
9,247,hand2,7,gabor,0,0.008029655748246354,4,4,-1,4,0.5656421019966729,-1,1,-1,congruent,hit,3,1,1.8386189688462764,1060599,16035,11:09:06.135461,hand
9,248,hand2,7,gabor,0,0.008029655748246354,4,4,-1,3,0.6233087118334879,-1,1,-1,incongruent,hit,4,2,1.703293260036844,1066248,16035,11:09:06.135461,hand
9,249,hand2,7,cue,yellow,-1,-1,-1,4,4,-1,0.21007838023433578,-1,1,none,none,-1,-1,-1,1071815,16035,11:09:06.135461,hand
9,250,hand2,7,cue,yellow,-1,-1,-1,4,4,-1,0.19980815811777575,-1,1,none,none,-1,-1,-1,1077182,16035,11:09:06.135461,hand
9,251,hand2,7,gabor,0,0.008029655748246354,4,4,-1,3,0.5155404979905143,-1,1,-1,incongruent,hit,4,3,2.8844386896998913,1079815,16035,11:09:06.135461,hand
9,252,hand2,7,cue,blue,-1,-1,-1,3,3,-1,0.5342301058126395,-1,1,none,none,-1,-1,-1,1086649,16035,11:09:06.135461,hand
9,253,hand2,8,gabor,0,0.008029655748246354,4,4,-1,3,0.46348015611511073,-1,1,-1,incongruent,hit,3,2,1.3444103204483326,1098430,16035,11:09:06.135461,hand
9,254,hand2,8,cue,yellow,-1,-1,-1,3,4,-1,0.21521617922826408,-1,0,none,none,-1,-1,-1,1103699,16035,11:09:06.135461,hand
9,255,hand2,8,cue,yellow,-1,-1,-1,4,4,-1,0.26710871705563477,-1,1,none,none,-1,-1,-1,1106248,16035,11:09:06.135461,hand
9,256,hand2,8,cue,yellow,-1,-1,-1,4,4,-1,0.1927688359082822,-1,1,none,none,-1,-1,-1,1111680,16035,11:09:06.135461,hand
9,257,hand2,8,gabor,90,0.008029655748246354,4,3,-1,4,0.6835964439369491,-1,0,-1,congruent,FA,3,2,3.1745453931071097,1114398,16035,11:09:06.135461,hand
9,258,hand2,8,cue,blue,-1,-1,-1,3,3,-1,0.23808860053759417,-1,1,none,none,-1,-1,-1,1121597,16035,11:09:06.135461,hand
9,259,hand2,8,cue,blue,-1,-1,-1,3,3,-1,0.21515358870328782,-1,1,none,none,-1,-1,-1,1124264,16035,11:09:06.135461,hand
9,260,hand2,8,cue,yellow,-1,-1,-1,4,4,-1,0.146758271548606,-1,1,none,none,-1,-1,-1,1126813,16035,11:09:06.135461,hand
9,261,hand2,8,cue,yellow,-1,-1,-1,4,4,-1,0.15776422033741255,-1,1,none,none,-1,-1,-1,1129396,16035,11:09:06.135461,hand
9,262,hand2,8,cue,blue,-1,-1,-1,3,3,-1,0.15063350827949762,-1,1,none,none,-1,-1,-1,1131880,16035,11:09:06.135461,hand
9,263,hand2,8,cue,blue,-1,-1,-1,4,3,-1,0.11454450224755419,-1,0,none,none,-1,-1,-1,1134363,16035,11:09:06.135461,hand
9,264,hand2,8,gabor,0,0.008029655748246354,4,4,-1,4,0.4132310995810258,-1,1,-1,congruent,hit,4,2,1.2872006598499866,1136912,16035,11:09:06.135461,hand
9,265,hand2,8,cue,blue,-1,-1,-1,3,3,-1,0.1751144677036791,-1,1,none,none,-1,-1,-1,1141946,16035,11:09:06.135461,hand
9,266,hand2,8,gabor,90,0.008029655748246354,4,3,-1,3,0.44766011270894523,-1,0,-1,incongruent,FA,q,1,1.7076603891819104,1147379,16035,11:09:06.135461,hand
9,267,hand2,8,gabor,90,0.008029655748246354,4,3,-1,4,0.5653414370790415,-1,0,-1,congruent,FA,4,1,1.2002885308047553,1152862,16035,11:09:06.135461,hand
9,268,hand2,8,gabor,0,0.008029655748246354,4,4,-1,4,0.5192567624644653,-1,1,-1,congruent,hit,c,2,2.4811230045906996,1157979,16035,11:09:06.135461,hand
9,269,hand2,8,cue,blue,-1,-1,-1,3,3,-1,0.31386691180614434,-1,1,none,none,-1,-1,-1,1164229,16035,11:09:06.135461,hand
9,270,hand2,8,gabor,0,0.008029655748246354,4,4,-1,3,0.39466360088226793,-1,1,-1,incongruent,hit,4,2,1.5585436451801797,1166979,16035,11:09:06.135461,hand
9,271,hand2,8,cue,yellow,-1,-1,-1,3,4,-1,0.26422955286579963,-1,0,none,none,-1,-1,-1,1172362,16035,11:09:06.135461,hand
9,272,hand2,8,gabor,90,0.008029655748246354,4,3,-1,3,0.34322878027523984,-1,0,-1,incongruent,FA,4,1,1.5850198216130593,1174962,16035,11:09:06.135461,hand
9,273,hand2,8,cue,blue,-1,-1,-1,3,3,-1,0.19687715514919546,-1,1,none,none,-1,-1,-1,1180128,16035,11:09:06.135461,hand
9,274,hand2,8,cue,yellow,-1,-1,-1,4,4,-1,0.1717338113257938,-1,1,none,none,-1,-1,-1,1182762,16035,11:09:06.135461,hand
9,275,hand2,8,gabor,90,0.008029655748246354,4,3,-1,3,0.34456199687610933,-1,0,-1,incongruent,FA,c,2,1.9974875471725682,1185261,16035,11:09:06.135461,hand
9,276,hand2,8,cue,yellow,-1,-1,-1,4,4,-1,0.6533310447466647,-1,1,none,none,-1,-1,-1,1190861,16035,11:09:06.135461,hand
9,277,hand2,8,gabor,0,0.008029655748246354,4,4,-1,4,0.36709996206172946,-1,1,-1,congruent,hit,c,2,4.452942292303305,1193845,16035,11:09:06.135461,hand
9,278,hand2,8,cue,blue,-1,-1,-1,3,3,-1,0.17453579333323432,-1,1,none,none,-1,-1,-1,1201911,16035,11:09:06.135461,hand
9,279,hand2,8,cue,blue,-1,-1,-1,3,3,-1,0.1864510327059179,-1,1,none,none,-1,-1,-1,1204510,16035,11:09:06.135461,hand
9,280,hand2,8,gabor,0,0.008029655748246354,4,4,-1,3,0.3423590407601296,-1,1,-1,incongruent,hit,q,2,1.7202871637964563,1207027,16035,11:09:06.135461,hand
9,281,hand2,8,cue,yellow,-1,-1,-1,3,4,-1,0.2100177096626794,-1,0,none,none,-1,-1,-1,1212427,16035,11:09:06.135461,hand
9,282,hand2,8,cue,blue,-1,-1,-1,3,3,-1,0.5797218983898347,-1,1,none,none,-1,-1,-1,1214960,16035,11:09:06.135461,hand
9,283,hand2,8,cue,yellow,-1,-1,-1,4,4,-1,0.16571475308592198,-1,1,none,none,-1,-1,-1,1217877,16035,11:09:06.135461,hand
9,284,hand2,8,cue,yellow,-1,-1,-1,4,4,-1,0.1575964162893797,-1,1,none,none,-1,-1,-1,1220477,16035,11:09:06.135461,hand
9,285,hand2,8,cue,yellow,-1,-1,-1,4,4,-1,0.147396848509743,-1,1,none,none,-1,-1,-1,1223060,16035,11:09:06.135461,hand
9,286,hand2,8,gabor,90,0.008029655748246354,3,3,-1,4,0.6162490381029784,-1,1,-1,incongruent,CR,q,2,6.3201382521037885,1225744,16035,11:09:06.135461,hand
9,287,hand2,8,cue,blue,-1,-1,-1,3,3,-1,0.2066881240816656,-1,1,none,none,-1,-1,-1,1236127,16035,11:09:06.135461,hand
9,288,hand2,8,cue,blue,-1,-1,-1,3,3,-1,0.18153326052834018,-1,1,none,none,-1,-1,-1,1238860,16035,11:09:06.135461,hand
9,289,hand2,9,cue,blue,-1,-1,-1,3,3,-1,0.6238094360396644,-1,1,none,none,-1,-1,-1,1251342,16035,11:09:06.135461,hand
9,290,hand2,9,cue,blue,-1,-1,-1,3,3,-1,0.23163486453540827,-1,1,none,none,-1,-1,-1,1254425,16035,11:09:06.135461,hand
9,291,hand2,9,gabor,0,0.008029655748246354,4,4,-1,4,0.36350734267489315,-1,1,-1,congruent,hit,4,2,1.6183782679554497,1257092,16035,11:09:06.135461,hand
9,292,hand2,9,cue,blue,-1,-1,-1,3,3,-1,0.17113171350592893,-1,1,none,none,-1,-1,-1,1262326,16035,11:09:06.135461,hand
9,293,hand2,9,gabor,90,0.008029655748246354,4,3,-1,4,0.38093861213383207,-1,0,-1,congruent,FA,4,1,1.702951124095307,1264926,16035,11:09:06.135461,hand
9,294,hand2,9,cue,yellow,-1,-1,-1,4,4,-1,0.21072041311253997,-1,1,none,none,-1,-1,-1,1270342,16035,11:09:06.135461,hand
9,295,hand2,9,cue,blue,-1,-1,-1,3,3,-1,0.11556937411023682,-1,1,none,none,-1,-1,-1,1273076,16035,11:09:06.135461,hand
9,296,hand2,9,gabor,90,0.008029655748246354,4,3,-1,3,0.5522972642947934,-1,0,-1,incongruent,FA,4,1,2.0751474141279687,1275726,16035,11:09:06.135461,hand
9,297,hand2,9,cue,yellow,-1,-1,-1,3,4,-1,0.19813818145030382,-1,0,none,none,-1,-1,-1,1281592,16035,11:09:06.135461,hand
9,298,hand2,9,cue,blue,-1,-1,-1,3,3,-1,0.15162420494652906,-1,1,none,none,-1,-1,-1,1286958,16035,11:09:06.135461,hand
9,299,hand2,9,cue,yellow,-1,-1,-1,4,4,-1,0.14060520046587044,-1,1,none,none,-1,-1,-1,1289441,16035,11:09:06.135461,hand
9,300,hand2,9,gabor,0,0.008029655748246354,4,4,-1,4,0.3483612033969621,-1,1,-1,congruent,hit,q,2,1.7303173915643129,1292007,16035,11:09:06.135461,hand
9,301,hand2,9,cue,yellow,-1,-1,-1,4,4,-1,0.16927703718738485,-1,1,none,none,-1,-1,-1,1297441,16035,11:09:06.135461,hand
9,302,hand2,9,cue,yellow,-1,-1,-1,4,4,-1,0.1320809852286402,-1,1,none,none,-1,-1,-1,1300142,16035,11:09:06.135461,hand
9,303,hand2,9,cue,blue,-1,-1,-1,3,3,-1,0.2718391016451278,-1,1,none,none,-1,-1,-1,1302608,16035,11:09:06.135461,hand
9,304,hand2,9,cue,yellow,-1,-1,-1,4,4,-1,0.12569598360823875,-1,1,none,none,-1,-1,-1,1305408,16035,11:09:06.135461,hand
9,305,hand2,9,cue,yellow,-1,-1,-1,4,4,-1,0.09562027595166,-1,1,none,none,-1,-1,-1,1307857,16035,11:09:06.135461,hand
9,306,hand2,9,gabor,90,0.008029655748246354,4,3,-1,4,0.2703388489790086,-1,0,-1,congruent,FA,3,2,1.359351408555085,1310491,16035,11:09:06.135461,hand
9,307,hand2,9,cue,yellow,-1,-1,-1,4,4,-1,0.18919810400620918,-1,1,none,none,-1,-1,-1,1315558,16035,11:09:06.135461,hand
9,308,hand2,9,cue,yellow,-1,-1,-1,4,4,-1,0.13304864243855263,-1,1,none,none,-1,-1,-1,1318275,16035,11:09:06.135461,hand
9,309,hand2,9,cue,blue,-1,-1,-1,3,3,-1,0.15886089850755525,-1,1,none,none,-1,-1,-1,1320840,16035,11:09:06.135461,hand
9,310,hand2,9,gabor,0,0.008029655748246354,3,4,-1,3,0.4287024791992735,-1,0,-1,congruent,miss,3,1,2.732545691083942,1323423,16035,11:09:06.135461,hand
9,311,hand2,9,gabor,0,0.008029655748246354,4,4,-1,3,0.507146071695388,-1,1,-1,incongruent,hit,q,3,2.3253259699222326,1330024,16035,11:09:06.135461,hand
9,312,hand2,9,gabor,90,0.008029655748246354,4,3,-1,4,0.4887363932803055,-1,0,-1,congruent,FA,q,1,1.4118590998950822,1336291,16035,11:09:06.135461,hand
9,313,hand2,9,gabor,0,0.008029655748246354,4,4,-1,4,0.4475787066267003,-1,1,-1,congruent,hit,3,2,1.122563385387366,1341423,16035,11:09:06.135461,hand
9,314,hand2,9,cue,blue,-1,-1,-1,3,3,-1,0.22143376079202426,-1,1,none,none,-1,-1,-1,1346323,16035,11:09:06.135461,hand
9,315,hand2,9,cue,yellow,-1,-1,-1,4,4,-1,0.10527496056420205,-1,1,none,none,-1,-1,-1,1348973,16035,11:09:06.135461,hand
9,316,hand2,9,cue,blue,-1,-1,-1,3,3,-1,0.14809801599585626,-1,1,none,none,-1,-1,-1,1351406,16035,11:09:06.135461,hand
9,317,hand2,9,cue,blue,-1,-1,-1,3,3,-1,0.15176397765480942,-1,1,none,none,-1,-1,-1,1356722,16035,11:09:06.135461,hand
9,318,hand2,9,gabor,90,0.008029655748246354,4,3,-1,3,0.3574575651591658,-1,0,-1,incongruent,FA,4,4,1.0045088218084857,1359406,16035,11:09:06.135461,hand
9,319,hand2,9,cue,yellow,-1,-1,-1,4,4,-1,0.17535369406959944,-1,1,none,none,-1,-1,-1,1364105,16035,11:09:06.135461,hand
9,320,hand2,9,cue,blue,-1,-1,-1,3,3,-1,0.16027436921831395,-1,1,none,none,-1,-1,-1,1366606,16035,11:09:06.135461,hand
9,321,hand2,9,gabor,90,0.008029655748246354,3,3,-1,3,0.5840640681235527,-1,1,-1,congruent,CR,q,1,2.3569668247173468,1369189,16035,11:09:06.135461,hand
9,322,hand2,9,gabor,0,0.008029655748246354,4,4,-1,3,0.48162564875292446,-1,1,-1,incongruent,hit,3,2,1.3876814933255446,1375372,16035,11:09:06.135461,hand
9,323,hand2,9,cue,blue,-1,-1,-1,3,3,-1,0.53340490924802,-1,1,none,none,-1,-1,-1,1380471,16035,11:09:06.135461,hand
9,324,hand2,9,cue,yellow,-1,-1,-1,4,4,-1,0.13725027148211666,-1,1,none,none,-1,-1,-1,1383339,16035,11:09:06.135461,hand
9,325,hand2,10,cue,blue,-1,-1,-1,3,3,-1,0.13176035278047493,-1,1,none,none,-1,-1,-1,1409004,16035,11:09:06.135461,hand
9,326,hand2,10,cue,yellow,-1,-1,-1,4,4,-1,0.14030683949386002,-1,1,none,none,-1,-1,-1,1414603,16035,11:09:06.135461,hand
9,327,hand2,10,cue,yellow,-1,-1,-1,4,4,-1,0.12329527215024427,-1,1,none,none,-1,-1,-1,1417271,16035,11:09:06.135461,hand
9,328,hand2,10,cue,yellow,-1,-1,-1,4,4,-1,0.2372530362163161,-1,1,none,none,-1,-1,-1,1419821,16035,11:09:06.135461,hand
9,329,hand2,10,cue,blue,-1,-1,-1,3,3,-1,0.1539899732279082,-1,1,none,none,-1,-1,-1,1422387,16035,11:09:06.135461,hand
9,330,hand2,10,gabor,0,0.008029655748246354,4,4,-1,3,0.41976585767406505,-1,1,-1,incongruent,hit,4,2,1.6408298351761914,1424870,16035,11:09:06.135461,hand
9,331,hand2,10,cue,blue,-1,-1,-1,3,3,-1,0.14755812471139507,-1,1,none,none,-1,-1,-1,1430371,16035,11:09:06.135461,hand
9,332,hand2,10,cue,blue,-1,-1,-1,3,3,-1,0.16243854224740062,-1,1,none,none,-1,-1,-1,1432953,16035,11:09:06.135461,hand
9,333,hand2,10,cue,blue,-1,-1,-1,3,3,-1,0.1452468831457736,-1,1,none,none,-1,-1,-1,1435453,16035,11:09:06.135461,hand
9,334,hand2,10,gabor,90,0.008029655748246354,4,3,-1,4,0.486011209463868,-1,0,-1,congruent,FA,3,2,1.571120884960692,1438138,16035,11:09:06.135461,hand
9,335,hand2,10,gabor,0,0.008029655748246354,4,4,-1,4,0.4567468746981831,-1,1,-1,congruent,hit,4,2,0.9737319466648842,1443638,16035,11:09:06.135461,hand
9,336,hand2,10,cue,yellow,-1,-1,-1,4,4,-1,0.1566080235679692,-1,1,none,none,-1,-1,-1,1448403,16035,11:09:06.135461,hand
9,337,hand2,10,gabor,0,0.008029655748246354,4,4,-1,3,0.42030229304054956,-1,1,-1,incongruent,hit,4,2,1.1012852945286795,1450986,16035,11:09:06.135461,hand
9,338,hand2,10,gabor,0,0.008029655748246354,4,4,-1,4,0.6031918096259687,-1,1,-1,congruent,hit,c,1,1.4479127787581092,1455954,16035,11:09:06.135461,hand
9,339,hand2,10,cue,yellow,-1,-1,-1,3,4,-1,0.20078119120080373,-1,0,none,none,-1,-1,-1,1461352,16035,11:09:06.135461,hand
9,340,hand2,10,gabor,90,0.008029655748246354,4,3,-1,4,0.5775465896231253,-1,0,-1,congruent,FA,4,1,1.843525605285322,1464086,16035,11:09:06.135461,hand
9,341,hand2,10,cue,blue,-1,-1,-1,3,3,-1,0.14529065811439068,-1,1,none,none,-1,-1,-1,1469851,16035,11:09:06.135461,hand
9,342,hand2,10,gabor,90,0.008029655748246354,3,3,-1,3,0.511978597880443,-1,1,-1,congruent,CR,q,1,1.6898489686773246,1476002,16035,11:09:06.135461,hand
9,343,hand2,10,cue,yellow,-1,-1,-1,4,4,-1,0.17354586464807653,-1,1,none,none,-1,-1,-1,1481652,16035,11:09:06.135461,hand
9,344,hand2,10,gabor,0,0.008029655748246354,4,4,-1,4,0.3304403454694693,-1,1,-1,congruent,hit,c,2,3.028397283187587,1484151,16035,11:09:06.135461,hand
9,345,hand2,10,cue,blue,-1,-1,-1,3,3,-1,0.1580760209935761,-1,1,none,none,-1,-1,-1,1490835,16035,11:09:06.135461,hand
9,346,hand2,10,cue,blue,-1,-1,-1,3,3,-1,0.1409461844350517,-1,1,none,none,-1,-1,-1,1493519,16035,11:09:06.135461,hand
9,347,hand2,10,cue,yellow,-1,-1,-1,4,4,-1,0.14471236773533747,-1,1,none,none,-1,-1,-1,1495984,16035,11:09:06.135461,hand
9,348,hand2,10,gabor,90,0.008029655748246354,3,3,-1,4,0.5066161641752842,-1,1,-1,incongruent,CR,4,1,2.7715188531892636,1498669,16035,11:09:06.135461,hand
9,349,hand2,10,gabor,90,0.008029655748246354,4,3,-1,3,0.40414664153831836,-1,0,-1,incongruent,FA,q,2,6.048056084182463,1505385,16035,11:09:06.135461,hand
9,350,hand2,10,cue,yellow,-1,-1,-1,4,4,-1,0.1738000666591688,-1,1,none,none,-1,-1,-1,1515084,16035,11:09:06.135461,hand
9,351,hand2,10,cue,yellow,-1,-1,-1,4,4,-1,0.15647477870697912,-1,1,none,none,-1,-1,-1,1517684,16035,11:09:06.135461,hand
9,352,hand2,10,gabor,90,0.008029655748246354,4,3,-1,3,0.3483535235773161,-1,0,-1,incongruent,FA,q,1,1.4443032637682336,1520167,16035,11:09:06.135461,hand
9,353,hand2,10,cue,yellow,-1,-1,-1,4,4,-1,0.17608980473232805,-1,1,none,none,-1,-1,-1,1525184,16035,11:09:06.135461,hand
9,354,hand2,10,cue,blue,-1,-1,-1,3,3,-1,0.17415295435057487,-1,1,none,none,-1,-1,-1,1527684,16035,11:09:06.135461,hand
9,355,hand2,10,cue,blue,-1,-1,-1,3,3,-1,0.15890889737784164,-1,1,none,none,-1,-1,-1,1530184,16035,11:09:06.135461,hand
9,356,hand2,10,cue,blue,-1,-1,-1,4,3,-1,0.1487515686021652,-1,0,none,none,-1,-1,-1,1532767,16035,11:09:06.135461,hand
9,357,hand2,10,cue,yellow,-1,-1,-1,4,4,-1,0.04662610186278471,-1,1,none,none,-1,-1,-1,1535451,16035,11:09:06.135461,hand
9,358,hand2,10,cue,blue,-1,-1,-1,3,3,-1,0.1444627736127586,-1,1,none,none,-1,-1,-1,1537833,16035,11:09:06.135461,hand
9,359,hand2,10,cue,yellow,-1,-1,-1,4,4,-1,0.12425563353099278,-1,1,none,none,-1,-1,-1,1540500,16035,11:09:06.135461,hand
9,360,hand2,10,gabor,0,0.008029655748246354,4,4,-1,3,0.347009555231125,-1,1,-1,incongruent,hit,4,2,1.1261644525748125,1543151,16035,11:09:06.135461,hand
9,361,hand2,11,gabor,0,0.008029655748246354,4,4,-1,3,0.4088720342460874,-1,1,-1,incongruent,hit,3,2,1.304841588369527,1563849,16035,11:09:06.135461,hand
9,362,hand2,11,cue,blue,-1,-1,-1,3,3,-1,0.1626105701961933,-1,1,none,none,-1,-1,-1,1568865,16035,11:09:06.135461,hand
9,363,hand2,11,gabor,0,0.008029655748246354,4,4,-1,3,0.35240616413102543,-1,1,-1,incongruent,hit,q,2,1.441373028781527,1571465,16035,11:09:06.135461,hand
9,364,hand2,11,cue,yellow,-1,-1,-1,4,4,-1,0.12816850137460278,-1,1,none,none,-1,-1,-1,1576700,16035,11:09:06.135461,hand
9,365,hand2,11,cue,blue,-1,-1,-1,3,3,-1,0.1438691235944134,-1,1,none,none,-1,-1,-1,1583032,16035,11:09:06.135461,hand
9,366,hand2,11,cue,yellow,-1,-1,-1,4,4,-1,0.13569894801730698,-1,1,none,none,-1,-1,-1,1585498,16035,11:09:06.135461,hand
9,367,hand2,11,cue,yellow,-1,-1,-1,4,4,-1,0.14558671514168964,-1,1,none,none,-1,-1,-1,1587965,16035,11:09:06.135461,hand
9,368,hand2,11,cue,blue,-1,-1,-1,3,3,-1,0.1222200974716543,-1,1,none,none,-1,-1,-1,1593482,16035,11:09:06.135461,hand
9,369,hand2,11,cue,blue,-1,-1,-1,3,3,-1,0.13121623759434442,-1,1,none,none,-1,-1,-1,1596133,16035,11:09:06.135461,hand
9,370,hand2,11,gabor,90,0.008029655748246354,4,3,-1,4,0.7156128418864682,-1,0,-1,congruent,FA,c,2,4.893604553824844,1601431,16035,11:09:06.135461,hand
9,371,hand2,11,cue,yellow,-1,-1,-1,4,4,-1,0.5322840396456741,-1,1,none,none,-1,-1,-1,1610465,16035,11:09:06.135461,hand
9,372,hand2,11,cue,blue,-1,-1,-1,3,3,-1,0.17010338572436012,-1,1,none,none,-1,-1,-1,1613331,16035,11:09:06.135461,hand
9,373,hand2,11,gabor,90,0.008029655748246354,4,3,-1,3,0.7747777844342636,-1,0,-1,incongruent,FA,3,1,3.7706387459165853,1618664,16035,11:09:06.135461,hand
9,374,hand2,11,gabor,0,0.008029655748246354,3,4,-1,4,0.7380717049345549,-1,0,-1,incongruent,miss,q,1,1.963164899540061,1629281,16035,11:09:06.135461,hand
9,375,hand2,11,cue,yellow,-1,-1,-1,3,4,-1,0.209895600537493,-1,0,none,none,-1,-1,-1,1635330,16035,11:09:06.135461,hand
9,376,hand2,11,gabor,90,0.008029655748246354,4,3,-1,4,0.512693589040282,-1,0,-1,congruent,FA,4,2,6.3924399092557,1638064,16035,11:09:06.135461,hand
9,377,hand2,11,cue,blue,-1,-1,-1,3,3,-1,0.1612293547259469,-1,1,none,none,-1,-1,-1,1648213,16035,11:09:06.135461,hand
9,378,hand2,11,cue,yellow,-1,-1,-1,4,4,-1,0.21412372495797172,-1,1,none,none,-1,-1,-1,1650813,16035,11:09:06.135461,hand
9,379,hand2,11,gabor,0,0.008029655748246354,4,4,-1,4,0.571764837794035,-1,1,-1,congruent,hit,c,2,2.191730140371874,1653363,16035,11:09:06.135461,hand
9,380,hand2,11,cue,yellow,-1,-1,-1,4,4,-1,0.267485412183305,-1,1,none,none,-1,-1,-1,1659462,16035,11:09:06.135461,hand
9,381,hand2,11,cue,blue,-1,-1,-1,3,3,-1,0.136317173457428,-1,1,none,none,-1,-1,-1,1662062,16035,11:09:06.135461,hand
9,382,hand2,11,cue,yellow,-1,-1,-1,4,4,-1,0.1552102964869846,-1,1,none,none,-1,-1,-1,1664730,16035,11:09:06.135461,hand
9,383,hand2,11,cue,yellow,-1,-1,-1,4,4,-1,0.1621002462143224,-1,1,none,none,-1,-1,-1,1667414,16035,11:09:06.135461,hand
9,384,hand2,11,gabor,90,0.008029655748246354,4,3,-1,3,0.622713909840968,-1,0,-1,incongruent,FA,q,1,3.5837968104169704,1669913,16035,11:09:06.135461,hand
9,385,hand2,11,cue,blue,-1,-1,-1,3,3,-1,0.382450384528056,-1,1,none,none,-1,-1,-1,1677462,16035,11:09:06.135461,hand
9,386,hand2,11,gabor,0,0.008029655748246354,4,4,-1,3,0.5803205402917229,-1,1,-1,incongruent,hit,q,1,6.415055440613287,1680379,16035,11:09:06.135461,hand
9,387,hand2,11,cue,blue,-1,-1,-1,3,3,-1,0.15068611504102591,-1,1,none,none,-1,-1,-1,1690812,16035,11:09:06.135461,hand
9,388,hand2,11,gabor,90,0.008029655748246354,4,3,-1,4,0.7274489791216183,-1,0,-1,congruent,FA,c,1,2.716398871374622,1693294,16035,11:09:06.135461,hand
9,389,hand2,11,gabor,0,0.008029655748246354,4,4,-1,4,0.6633478328312776,-1,1,-1,congruent,hit,c,1,2.077035881651682,1700179,16035,11:09:06.135461,hand
9,390,hand2,11,cue,blue,-1,-1,-1,3,3,-1,0.19974902351168566,-1,1,none,none,-1,-1,-1,1706144,16035,11:09:06.135461,hand
9,391,hand2,11,cue,yellow,-1,-1,-1,4,4,-1,0.16059576964835287,-1,1,none,none,-1,-1,-1,1708878,16035,11:09:06.135461,hand
9,392,hand2,11,gabor,90,0.008029655748246354,4,3,-1,3,0.6843098991339502,-1,0,-1,incongruent,FA,3,1,2.15828644803878,1711562,16035,11:09:06.135461,hand
9,393,hand2,11,cue,yellow,-1,-1,-1,3,4,-1,0.5471659931463364,-1,0,none,none,-1,-1,-1,1717644,16035,11:09:06.135461,hand
9,394,hand2,11,cue,blue,-1,-1,-1,3,3,-1,0.2860202716492495,-1,1,none,none,-1,-1,-1,1720728,16035,11:09:06.135461,hand
9,395,hand2,11,cue,blue,-1,-1,-1,3,3,-1,0.18479103980098444,-1,1,none,none,-1,-1,-1,1723545,16035,11:09:06.135461,hand
9,396,hand2,11,cue,yellow,-1,-1,-1,4,4,-1,0.17462679918935464,-1,1,none,none,-1,-1,-1,1726160,16035,11:09:06.135461,hand
