subject_id,trial,effector_order,block,condition,stim1,gabor.contrast,pressed_gabor,expected_gabor,pressed_cue,expected_cue,rt_gabor,rt_cue,accuracy_gabor,accuracy_cue,congruency,SDT,pressed_conf,conf,rt_conf,trial_start_time_rel2bloc,bloc_start_time_rel2exp,exp_start_date,effector
15,1,hand1,1,gabor,90,0.017076913512470152,4,4,-1,4,0.5950082923768605,-1,1,-1,congruent,CR,3,2,1.8639451132576141,0,13603,11:49:06.691637,hand
15,2,hand1,1,gabor,0,0.017076913512470152,3,3,-1,3,0.6086919624804068,-1,1,-1,congruent,hit,4,4,1.4045478091347832,5850,13603,11:49:06.691637,hand
15,3,hand1,1,gabor,0,0.017076913512470152,3,3,-1,4,0.7554295965860547,-1,1,-1,incongruent,hit,4,2,1.0063121136290647,11199,13603,11:49:06.691637,hand
15,4,hand1,1,cue,black,-1,-1,-1,3,3,-1,0.3651863778459301,-1,1,none,none,-1,-1,-1,16199,13603,11:49:06.691637,hand
15,5,hand1,1,cue,white,-1,-1,-1,4,4,-1,0.20705214924055326,-1,1,none,none,-1,-1,-1,18899,13603,11:49:06.691637,hand
15,6,hand1,1,cue,black,-1,-1,-1,3,3,-1,0.20281284187558413,-1,1,none,none,-1,-1,-1,21550,13603,11:49:06.691637,hand
15,7,hand1,1,cue,white,-1,-1,-1,4,4,-1,0.3635386543041932,-1,1,none,none,-1,-1,-1,24183,13603,11:49:06.691637,hand
15,8,hand1,1,cue,white,-1,-1,-1,4,4,-1,0.2165633271497427,-1,1,none,none,-1,-1,-1,26983,13603,11:49:06.691637,hand
15,9,hand1,1,gabor,0,0.017076913512470152,3,3,-1,4,0.5133133067020026,-1,1,-1,incongruent,hit,3,1,0.13732053502826602,29733,13603,11:49:06.691637,hand
15,10,hand1,1,gabor,0,0.017076913512470152,4,3,-1,4,0.6651561574208245,-1,0,-1,congruent,miss,c,1,1.0640972521687218,33715,13603,11:49:06.691637,hand
15,11,hand1,1,gabor,90,0.017076913512470152,4,4,-1,3,0.5837380323082471,-1,1,-1,incongruent,CR,3,4,0.8817943636408927,38900,13603,11:49:06.691637,hand
15,12,hand1,1,cue,black,-1,-1,-1,4,3,-1,0.6365439046708161,-1,0,none,none,-1,-1,-1,43816,13603,11:49:06.691637,hand
15,13,hand1,1,cue,black,-1,-1,-1,3,3,-1,0.20632639825134902,-1,1,none,none,-1,-1,-1,46882,13603,11:49:06.691637,hand
15,14,hand1,1,cue,white,-1,-1,-1,4,4,-1,0.2161424683754376,-1,1,none,none,-1,-1,-1,49532,13603,11:49:06.691637,hand
15,15,hand1,1,cue,white,-1,-1,-1,4,4,-1,0.24704486869086395,-1,1,none,none,-1,-1,-1,52081,13603,11:49:06.691637,hand
15,16,hand1,1,cue,black,-1,-1,-1,3,3,-1,0.1749363239905506,-1,1,none,none,-1,-1,-1,54765,13603,11:49:06.691637,hand
15,17,hand1,1,cue,white,-1,-1,-1,4,4,-1,0.1818298064008559,-1,1,none,none,-1,-1,-1,57382,13603,11:49:06.691637,hand
15,18,hand1,1,gabor,0,0.017076913512470152,3,3,-1,3,0.5034043097321046,-1,1,-1,congruent,hit,q,4,0.8725462224660987,59898,13603,11:49:06.691637,hand
15,19,hand1,1,cue,white,-1,-1,-1,4,4,-1,0.19935419681860367,-1,1,none,none,-1,-1,-1,64715,13603,11:49:06.691637,hand
15,20,hand1,1,cue,black,-1,-1,-1,3,3,-1,0.17720227985637393,-1,1,none,none,-1,-1,-1,67247,13603,11:49:06.691637,hand
15,21,hand1,1,cue,black,-1,-1,-1,3,3,-1,0.2840524092052874,-1,1,none,none,-1,-1,-1,69965,13603,11:49:06.691637,hand
15,22,hand1,1,cue,black,-1,-1,-1,3,3,-1,0.1620256362893997,-1,1,none,none,-1,-1,-1,72681,13603,11:49:06.691637,hand
15,23,hand1,1,gabor,90,0.017076913512470152,4,4,-1,3,0.544691861105548,-1,1,-1,incongruent,CR,4,3,0.8787657932439288,75281,13603,11:49:06.691637,hand
15,24,hand1,1,cue,black,-1,-1,-1,3,3,-1,0.1595242913463153,-1,1,none,none,-1,-1,-1,80031,13603,11:49:06.691637,hand
15,25,hand1,1,cue,white,-1,-1,-1,4,4,-1,0.21332586334574444,-1,1,none,none,-1,-1,-1,82732,13603,11:49:06.691637,hand
15,26,hand1,1,cue,white,-1,-1,-1,4,4,-1,0.29824180102968967,-1,1,none,none,-1,-1,-1,85482,13603,11:49:06.691637,hand
15,27,hand1,1,gabor,0,0.017076913512470152,3,3,-1,3,0.4828932043978966,-1,1,-1,congruent,hit,4,2,0.8647826068590803,91147,13603,11:49:06.691637,hand
15,28,hand1,1,cue,white,-1,-1,-1,4,4,-1,0.24052347766064486,-1,1,none,none,-1,-1,-1,95730,13603,11:49:06.691637,hand
15,29,hand1,1,cue,white,-1,-1,-1,4,4,-1,0.22338922639937664,-1,1,none,none,-1,-1,-1,98414,13603,11:49:06.691637,hand
15,30,hand1,1,gabor,90,0.017076913512470152,3,4,-1,4,0.6311979230463294,-1,0,-1,incongruent,FA,c,2,0.9652810710704216,101080,13603,11:49:06.691637,hand
15,31,hand1,1,gabor,90,0.017076913512470152,4,4,-1,3,0.6199614545585064,-1,1,-1,incongruent,CR,c,4,0.923910192731455,106114,13603,11:49:06.691637,hand
15,32,hand1,1,cue,black,-1,-1,-1,3,3,-1,0.44871839671259295,-1,1,none,none,-1,-1,-1,110997,13603,11:49:06.691637,hand
15,33,hand1,1,cue,black,-1,-1,-1,3,3,-1,0.22052039801883438,-1,1,none,none,-1,-1,-1,113880,13603,11:49:06.691637,hand
15,34,hand1,1,cue,black,-1,-1,-1,4,3,-1,0.22438838199377642,-1,0,none,none,-1,-1,-1,116529,13603,11:49:06.691637,hand
15,35,hand1,1,gabor,90,0.017076913512470152,3,4,-1,4,0.36531424825807335,-1,0,-1,incongruent,FA,c,2,1.0762683650518738,119196,13603,11:49:06.691637,hand
15,36,hand1,1,cue,white,-1,-1,-1,4,4,-1,0.29580074333807715,-1,1,none,none,-1,-1,-1,126796,13603,11:49:06.691637,hand
15,37,hand1,2,gabor,90,0.017076913512470152,4,4,-1,4,0.5706837303910106,-1,1,-1,congruent,CR,4,3,0.6777143374988555,145329,13603,11:49:06.691637,hand
15,38,hand1,2,gabor,0,0.017076913512470152,3,3,-1,4,0.41238323185007175,-1,1,-1,incongruent,hit,c,1,0.6205355274310023,149978,13603,11:49:06.691637,hand
15,39,hand1,2,gabor,0,0.017076913512470152,3,3,-1,4,0.5622650189175147,-1,1,-1,incongruent,hit,q,4,0.6592649025669743,154446,13603,11:49:06.691637,hand
15,40,hand1,2,cue,black,-1,-1,-1,3,3,-1,0.33406778821426997,-1,1,none,none,-1,-1,-1,159012,13603,11:49:06.691637,hand
15,41,hand1,2,cue,black,-1,-1,-1,3,3,-1,0.23898788072619936,-1,1,none,none,-1,-1,-1,161778,13603,11:49:06.691637,hand
15,42,hand1,2,cue,black,-1,-1,-1,3,3,-1,0.22064366048834927,-1,1,none,none,-1,-1,-1,164445,13603,11:49:06.691637,hand
15,43,hand1,2,cue,white,-1,-1,-1,4,4,-1,0.16463565188360008,-1,1,none,none,-1,-1,-1,166994,13603,11:49:06.691637,hand
15,44,hand1,2,gabor,0,0.017076913512470152,3,3,-1,3,0.4942225997319838,-1,1,-1,congruent,hit,3,4,0.658168212183682,169594,13603,11:49:06.691637,hand
15,45,hand1,2,cue,white,-1,-1,-1,4,4,-1,0.18220343376242454,-1,1,none,none,-1,-1,-1,174195,13603,11:49:06.691637,hand
15,46,hand1,2,cue,black,-1,-1,-1,3,3,-1,0.1698787227860521,-1,1,none,none,-1,-1,-1,176912,13603,11:49:06.691637,hand
15,47,hand1,2,cue,white,-1,-1,-1,4,4,-1,0.2507519586638409,-1,1,none,none,-1,-1,-1,179511,13603,11:49:06.691637,hand
15,48,hand1,2,cue,black,-1,-1,-1,3,3,-1,0.26666011314819116,-1,1,none,none,-1,-1,-1,182295,13603,11:49:06.691637,hand
15,49,hand1,2,cue,white,-1,-1,-1,4,4,-1,0.18050886280207123,-1,1,none,none,-1,-1,-1,184894,13603,11:49:06.691637,hand
15,50,hand1,2,cue,white,-1,-1,-1,4,4,-1,0.18224528924247352,-1,1,none,none,-1,-1,-1,191276,13603,11:49:06.691637,hand
15,51,hand1,2,cue,black,-1,-1,-1,4,3,-1,0.4410734356320063,-1,0,none,none,-1,-1,-1,193894,13603,11:49:06.691637,hand
15,52,hand1,2,cue,white,-1,-1,-1,4,4,-1,0.2848023518940863,-1,1,none,none,-1,-1,-1,196760,13603,11:49:06.691637,hand
15,53,hand1,2,cue,black,-1,-1,-1,3,3,-1,0.17567013887946814,-1,1,none,none,-1,-1,-1,199578,13603,11:49:06.691637,hand
15,54,hand1,2,gabor,90,0.017076913512470152,3,4,-1,3,0.4175226240390657,-1,0,-1,congruent,FA,q,1,0.9895134742005212,202177,13603,11:49:06.691637,hand
15,55,hand1,2,gabor,90,0.017076913512470152,3,4,-1,4,0.7171053364199906,-1,0,-1,incongruent,FA,4,2,1.1562476600288392,207027,13603,11:49:06.691637,hand
15,56,hand1,2,cue,white,-1,-1,-1,4,4,-1,0.2870183883796926,-1,1,none,none,-1,-1,-1,212344,13603,11:49:06.691637,hand
15,57,hand1,2,cue,white,-1,-1,-1,4,4,-1,0.21772990466570263,-1,1,none,none,-1,-1,-1,214960,13603,11:49:06.691637,hand
15,58,hand1,2,gabor,90,0.017076913512470152,4,4,-1,4,0.5865162378145214,-1,1,-1,congruent,CR,c,3,0.8414940640095665,217711,13603,11:49:06.691637,hand
15,59,hand1,2,cue,black,-1,-1,-1,3,3,-1,0.14723490793130622,-1,1,none,none,-1,-1,-1,222476,13603,11:49:06.691637,hand
15,60,hand1,2,gabor,0,0.017076913512470152,3,3,-1,3,0.45219201758391137,-1,1,-1,congruent,hit,c,4,0.8851846575475975,224959,13603,11:49:06.691637,hand
15,61,hand1,2,gabor,0,0.017076913512470152,3,3,-1,4,0.4769416622921199,-1,1,-1,incongruent,hit,q,3,0.7528241889349374,229643,13603,11:49:06.691637,hand
15,62,hand1,2,cue,black,-1,-1,-1,3,3,-1,0.1836979432064254,-1,1,none,none,-1,-1,-1,234327,13603,11:49:06.691637,hand
15,63,hand1,2,cue,white,-1,-1,-1,4,4,-1,0.17748182838522553,-1,1,none,none,-1,-1,-1,236942,13603,11:49:06.691637,hand
15,64,hand1,2,cue,white,-1,-1,-1,4,4,-1,0.24632564562080006,-1,1,none,none,-1,-1,-1,239643,13603,11:49:06.691637,hand
15,65,hand1,2,cue,black,-1,-1,-1,3,3,-1,0.2112077456449697,-1,1,none,none,-1,-1,-1,242427,13603,11:49:06.691637,hand
15,66,hand1,2,gabor,0,0.017076913512470152,3,3,-1,3,0.5829700418439643,-1,1,-1,congruent,hit,q,3,0.8120408617005523,245075,13603,11:49:06.691637,hand
15,67,hand1,2,cue,white,-1,-1,-1,4,4,-1,0.21384195293831,-1,1,none,none,-1,-1,-1,249809,13603,11:49:06.691637,hand
15,68,hand1,2,cue,white,-1,-1,-1,4,4,-1,0.2615452966538214,-1,1,none,none,-1,-1,-1,252560,13603,11:49:06.691637,hand
15,69,hand1,2,cue,black,-1,-1,-1,3,3,-1,0.36221732670992424,-1,1,none,none,-1,-1,-1,258824,13603,11:49:06.691637,hand
15,70,hand1,2,cue,black,-1,-1,-1,3,3,-1,0.19113823482757653,-1,1,none,none,-1,-1,-1,261525,13603,11:49:06.691637,hand
15,71,hand1,2,gabor,90,0.017076913512470152,4,4,-1,3,0.38013992018250065,-1,1,-1,incongruent,CR,c,2,0.9578430834199025,264042,13603,11:49:06.691637,hand
15,72,hand1,2,gabor,90,0.017076913512470152,4,4,-1,3,0.765810523696473,-1,1,-1,incongruent,CR,q,1,1.0314192578985057,268625,13603,11:49:06.691637,hand
15,73,hand1,3,cue,white,-1,-1,-1,4,4,-1,0.16772297355146293,-1,1,none,none,-1,-1,-1,286991,13603,11:49:06.691637,hand
15,74,hand1,3,gabor,0,0.017076913512470152,3,3,-1,4,0.3663053399527598,-1,1,-1,incongruent,hit,q,3,1.4513975314484924,289540,13603,11:49:06.691637,hand
15,75,hand1,3,cue,white,-1,-1,-1,4,4,-1,0.23022050158260754,-1,1,none,none,-1,-1,-1,294707,13603,11:49:06.691637,hand
15,76,hand1,3,cue,black,-1,-1,-1,3,3,-1,0.33299260156400123,-1,1,none,none,-1,-1,-1,297374,13603,11:49:06.691637,hand
15,77,hand1,3,cue,black,-1,-1,-1,3,3,-1,0.26186017274449114,-1,1,none,none,-1,-1,-1,300241,13603,11:49:06.691637,hand
15,78,hand1,3,cue,white,-1,-1,-1,4,4,-1,0.16772450953249063,-1,1,none,none,-1,-1,-1,303025,13603,11:49:06.691637,hand
15,79,hand1,3,cue,white,-1,-1,-1,4,4,-1,0.20654412354815577,-1,1,none,none,-1,-1,-1,305724,13603,11:49:06.691637,hand
15,80,hand1,3,gabor,90,0.017076913512470152,3,4,-1,3,0.4592444740205792,-1,0,-1,congruent,FA,3,1,1.0523638938498152,308256,13603,11:49:06.691637,hand
15,81,hand1,3,cue,white,-1,-1,-1,4,4,-1,0.03426005462733883,-1,1,none,none,-1,-1,-1,313106,13603,11:49:06.691637,hand
15,82,hand1,3,gabor,0,0.017076913512470152,3,3,-1,3,0.41709792531219136,-1,1,-1,congruent,hit,4,4,0.5800927655682244,315472,13603,11:49:06.691637,hand
15,83,hand1,3,cue,black,-1,-1,-1,3,3,-1,0.17077112770539316,-1,1,none,none,-1,-1,-1,319908,13603,11:49:06.691637,hand
15,84,hand1,3,gabor,0,0.017076913512470152,3,3,-1,3,0.46162409247517644,-1,1,-1,congruent,hit,3,3,0.8125604072502028,322506,13603,11:49:06.691637,hand
15,85,hand1,3,cue,black,-1,-1,-1,3,3,-1,0.20638322954573596,-1,1,none,none,-1,-1,-1,327023,13603,11:49:06.691637,hand
15,86,hand1,3,gabor,90,0.017076913512470152,4,4,-1,4,0.48014341453927045,-1,1,-1,congruent,CR,q,4,1.3642912849595632,329656,13603,11:49:06.691637,hand
15,87,hand1,3,gabor,90,0.017076913512470152,4,4,-1,4,0.7959691252476659,-1,1,-1,congruent,CR,c,1,1.3598473081356133,334839,13603,11:49:06.691637,hand
15,88,hand1,3,cue,white,-1,-1,-1,4,4,-1,0.2955953058885825,-1,1,none,none,-1,-1,-1,340339,13603,11:49:06.691637,hand
15,89,hand1,3,cue,black,-1,-1,-1,4,3,-1,0.3814213122732326,-1,0,none,none,-1,-1,-1,343173,13603,11:49:06.691637,hand
15,90,hand1,3,cue,white,-1,-1,-1,4,4,-1,0.23123079303832128,-1,1,none,none,-1,-1,-1,345888,13603,11:49:06.691637,hand
15,91,hand1,3,gabor,0,0.017076913512470152,3,3,-1,4,0.6401626757401573,-1,1,-1,incongruent,hit,q,2,2.8141017641123653,348455,13603,11:49:06.691637,hand
15,92,hand1,3,cue,black,-1,-1,-1,3,3,-1,0.1928788852155776,-1,1,none,none,-1,-1,-1,355255,13603,11:49:06.691637,hand
15,93,hand1,3,cue,black,-1,-1,-1,3,3,-1,0.24060142869257106,-1,1,none,none,-1,-1,-1,357973,13603,11:49:06.691637,hand
15,94,hand1,3,cue,black,-1,-1,-1,3,3,-1,0.3074104551919845,-1,1,none,none,-1,-1,-1,360538,13603,11:49:06.691637,hand
15,95,hand1,3,gabor,90,0.017076913512470152,4,4,-1,3,0.5923168697941037,-1,1,-1,incongruent,CR,c,2,2.4152989076487756,363271,13603,11:49:06.691637,hand
15,96,hand1,3,cue,black,-1,-1,-1,3,3,-1,0.29705563975721816,-1,1,none,none,-1,-1,-1,369522,13603,11:49:06.691637,hand
15,97,hand1,3,gabor,0,0.017076913512470152,3,3,-1,3,0.424803941634309,-1,1,-1,congruent,hit,q,3,1.5197279470576177,372255,13603,11:49:06.691637,hand
15,98,hand1,3,cue,black,-1,-1,-1,3,3,-1,0.25859122133169876,-1,1,none,none,-1,-1,-1,377437,13603,11:49:06.691637,hand
15,99,hand1,3,cue,white,-1,-1,-1,4,4,-1,0.2222886960635151,-1,1,none,none,-1,-1,-1,380021,13603,11:49:06.691637,hand
15,100,hand1,3,cue,white,-1,-1,-1,4,4,-1,0.1818424782436523,-1,1,none,none,-1,-1,-1,389171,13603,11:49:06.691637,hand
15,101,hand1,3,cue,white,-1,-1,-1,4,4,-1,0.17563673129461677,-1,1,none,none,-1,-1,-1,391687,13603,11:49:06.691637,hand
15,102,hand1,3,cue,black,-1,-1,-1,3,3,-1,0.1974810680749215,-1,1,none,none,-1,-1,-1,394187,13603,11:49:06.691637,hand
15,103,hand1,3,cue,white,-1,-1,-1,4,4,-1,0.1563709224988088,-1,1,none,none,-1,-1,-1,396820,13603,11:49:06.691637,hand
15,104,hand1,3,cue,white,-1,-1,-1,4,4,-1,0.2612319565441794,-1,1,none,none,-1,-1,-1,399403,13603,11:49:06.691637,hand
15,105,hand1,3,gabor,0,0.017076913512470152,4,3,-1,4,0.5331167088229449,-1,0,-1,congruent,miss,c,1,1.086223825444904,402003,13603,11:49:06.691637,hand
15,106,hand1,3,gabor,90,0.017076913512470152,4,4,-1,4,0.429857702886693,-1,1,-1,congruent,CR,c,3,1.563723432810093,406971,13603,11:49:06.691637,hand
15,107,hand1,3,gabor,90,0.017076913512470152,4,4,-1,3,0.5174258956399171,-1,1,-1,incongruent,CR,4,3,1.3264550827339008,412303,13603,11:49:06.691637,hand
15,108,hand1,3,cue,black,-1,-1,-1,4,3,-1,0.35432353671876626,-1,0,none,none,-1,-1,-1,417386,13603,11:49:06.691637,hand
15,109,hand1,4,gabor,0,0.017076913512470152,3,3,-1,4,0.6185364482512341,-1,1,-1,incongruent,hit,4,2,1.2904862493228393,429669,13603,11:49:06.691637,hand
15,110,hand1,4,cue,black,-1,-1,-1,4,3,-1,0.40423101306760145,-1,0,none,none,-1,-1,-1,434835,13603,11:49:06.691637,hand
15,111,hand1,4,gabor,0,0.017076913512470152,3,3,-1,3,0.3517703524194076,-1,1,-1,congruent,hit,c,4,0.9807929424746362,441436,13603,11:49:06.691637,hand
15,112,hand1,4,cue,white,-1,-1,-1,4,4,-1,0.29152994836385915,-1,1,none,none,-1,-1,-1,446019,13603,11:49:06.691637,hand
15,113,hand1,4,gabor,0,0.017076913512470152,3,3,-1,4,0.36134373755612614,-1,1,-1,incongruent,hit,3,4,0.8901992512860488,448735,13603,11:49:06.691637,hand
15,114,hand1,4,cue,white,-1,-1,-1,4,4,-1,0.2382225782284877,-1,1,none,none,-1,-1,-1,453318,13603,11:49:06.691637,hand
15,115,hand1,4,cue,white,-1,-1,-1,4,4,-1,0.22694886220278931,-1,1,none,none,-1,-1,-1,455985,13603,11:49:06.691637,hand
15,116,hand1,4,cue,black,-1,-1,-1,3,3,-1,0.18969825270642104,-1,1,none,none,-1,-1,-1,458635,13603,11:49:06.691637,hand
15,117,hand1,4,gabor,90,0.017076913512470152,3,4,-1,3,0.3556556161802291,-1,0,-1,congruent,FA,3,1,0.8146743010038335,461252,13603,11:49:06.691637,hand
15,118,hand1,4,cue,black,-1,-1,-1,3,3,-1,0.1733972710994749,-1,1,none,none,-1,-1,-1,465668,13603,11:49:06.691637,hand
15,119,hand1,4,cue,white,-1,-1,-1,4,4,-1,0.1411163278994536,-1,1,none,none,-1,-1,-1,468268,13603,11:49:06.691637,hand
15,120,hand1,4,cue,black,-1,-1,-1,3,3,-1,0.2143200270024863,-1,1,none,none,-1,-1,-1,470834,13603,11:49:06.691637,hand
15,121,hand1,4,cue,white,-1,-1,-1,4,4,-1,0.278015620158385,-1,1,none,none,-1,-1,-1,473586,13603,11:49:06.691637,hand
15,122,hand1,4,cue,black,-1,-1,-1,3,3,-1,0.12884691223689515,-1,1,none,none,-1,-1,-1,476202,13603,11:49:06.691637,hand
15,123,hand1,4,cue,black,-1,-1,-1,3,3,-1,0.22866148093908123,-1,1,none,none,-1,-1,-1,478668,13603,11:49:06.691637,hand
15,124,hand1,4,cue,white,-1,-1,-1,4,4,-1,0.17952545101206852,-1,1,none,none,-1,-1,-1,481235,13603,11:49:06.691637,hand
15,125,hand1,4,cue,black,-1,-1,-1,3,3,-1,0.0654208837340775,-1,1,none,none,-1,-1,-1,483851,13603,11:49:06.691637,hand
15,126,hand1,4,cue,black,-1,-1,-1,3,3,-1,0.2512672802654379,-1,1,none,none,-1,-1,-1,486350,13603,11:49:06.691637,hand
15,127,hand1,4,cue,white,-1,-1,-1,4,4,-1,0.12924665127320623,-1,1,none,none,-1,-1,-1,489135,13603,11:49:06.691637,hand
15,128,hand1,4,cue,white,-1,-1,-1,4,4,-1,0.17097464517883054,-1,1,none,none,-1,-1,-1,491601,13603,11:49:06.691637,hand
15,129,hand1,4,gabor,0,0.017076913512470152,4,3,-1,3,0.6277849734219672,-1,0,-1,incongruent,miss,q,1,1.5287606669076013,494302,13603,11:49:06.691637,hand
15,130,hand1,4,gabor,90,0.017076913512470152,3,4,-1,3,0.5605332004197408,-1,0,-1,congruent,FA,3,2,0.8414284008249524,499800,13603,11:49:06.691637,hand
15,131,hand1,4,gabor,0,0.017076913512470152,3,3,-1,4,0.4982157661529527,-1,1,-1,incongruent,hit,c,3,1.3242643899329778,504550,13603,11:49:06.691637,hand
15,132,hand1,4,cue,black,-1,-1,-1,4,3,-1,0.4339894915865443,-1,0,none,none,-1,-1,-1,509717,13603,11:49:06.691637,hand
15,133,hand1,4,cue,white,-1,-1,-1,4,4,-1,0.19574809759160416,-1,1,none,none,-1,-1,-1,512584,13603,11:49:06.691637,hand
15,134,hand1,4,cue,white,-1,-1,-1,4,4,-1,0.20562253499065264,-1,1,none,none,-1,-1,-1,515117,13603,11:49:06.691637,hand
15,135,hand1,4,gabor,0,0.017076913512470152,3,3,-1,3,0.40134951284471754,-1,1,-1,congruent,hit,q,4,1.2443830137403893,517650,13603,11:49:06.691637,hand
15,136,hand1,4,cue,black,-1,-1,-1,3,3,-1,0.16722646771631844,-1,1,none,none,-1,-1,-1,522733,13603,11:49:06.691637,hand
15,137,hand1,4,gabor,90,0.017076913512470152,3,4,-1,3,0.5669397768756426,-1,0,-1,congruent,FA,3,2,1.3138362314093683,525332,13603,11:49:06.691637,hand
15,138,hand1,4,cue,black,-1,-1,-1,3,3,-1,0.22769074099187492,-1,1,none,none,-1,-1,-1,530651,13603,11:49:06.691637,hand
15,139,hand1,4,gabor,90,0.017076913512470152,4,4,-1,4,0.5315784239223831,-1,1,-1,congruent,CR,4,3,0.8595042083957196,533199,13603,11:49:06.691637,hand
15,140,hand1,4,cue,white,-1,-1,-1,4,4,-1,0.19235511571878305,-1,1,none,none,-1,-1,-1,537932,13603,11:49:06.691637,hand
15,141,hand1,4,gabor,90,0.017076913512470152,4,4,-1,4,0.4501975463472263,-1,1,-1,congruent,CR,c,2,1.7110309158401833,540548,13603,11:49:06.691637,hand
15,142,hand1,4,cue,white,-1,-1,-1,4,4,-1,0.15989599873137195,-1,1,none,none,-1,-1,-1,546049,13603,11:49:06.691637,hand
15,143,hand1,4,cue,black,-1,-1,-1,3,3,-1,0.21064404064372866,-1,1,none,none,-1,-1,-1,548632,13603,11:49:06.691637,hand
15,144,hand1,4,gabor,90,0.017076913512470152,4,4,-1,4,0.5485901807046503,-1,1,-1,congruent,CR,c,2,1.2354336208563836,551366,13603,11:49:06.691637,hand
15,145,hand1,5,gabor,90,0.017076913512470152,4,4,-1,3,0.5267032204528732,-1,1,-1,incongruent,CR,3,4,0.6325630260971593,566616,13603,11:49:06.691637,hand
15,146,hand1,5,cue,white,-1,-1,-1,3,4,-1,0.3395454802034692,-1,0,none,none,-1,-1,-1,571064,13603,11:49:06.691637,hand
15,147,hand1,5,cue,black,-1,-1,-1,3,3,-1,0.2132805519086105,-1,1,none,none,-1,-1,-1,573932,13603,11:49:06.691637,hand
15,148,hand1,5,cue,black,-1,-1,-1,3,3,-1,0.23318840073261526,-1,1,none,none,-1,-1,-1,576581,13603,11:49:06.691637,hand
15,149,hand1,5,cue,white,-1,-1,-1,4,4,-1,0.1580485976687669,-1,1,none,none,-1,-1,-1,579248,13603,11:49:06.691637,hand
15,150,hand1,5,cue,black,-1,-1,-1,3,3,-1,0.14976850847415335,-1,1,none,none,-1,-1,-1,581831,13603,11:49:06.691637,hand
15,151,hand1,5,gabor,90,0.017076913512470152,4,4,-1,4,0.5697252782906617,-1,1,-1,congruent,CR,4,1,1.0135435118436362,584515,13603,11:49:06.691637,hand
15,152,hand1,5,cue,white,-1,-1,-1,4,4,-1,0.17237661177205155,-1,1,none,none,-1,-1,-1,589532,13603,11:49:06.691637,hand
15,153,hand1,5,gabor,90,0.017076913512470152,3,4,-1,3,0.6182503718032422,-1,0,-1,congruent,FA,3,2,1.0022083565809226,592130,13603,11:49:06.691637,hand
15,154,hand1,5,cue,white,-1,-1,-1,4,4,-1,0.2360522371754996,-1,1,none,none,-1,-1,-1,596998,13603,11:49:06.691637,hand
15,155,hand1,5,cue,white,-1,-1,-1,4,4,-1,0.1938127616208476,-1,1,none,none,-1,-1,-1,599564,13603,11:49:06.691637,hand
15,156,hand1,5,gabor,0,0.017076913512470152,3,3,-1,3,0.7085814102533732,-1,1,-1,congruent,hit,q,1,1.0335266237334508,602080,13603,11:49:06.691637,hand
15,157,hand1,5,cue,black,-1,-1,-1,3,3,-1,0.20924053806947995,-1,1,none,none,-1,-1,-1,607264,13603,11:49:06.691637,hand
15,158,hand1,5,gabor,90,0.017076913512470152,4,4,-1,4,0.49227420792340126,-1,1,-1,congruent,CR,3,2,0.7942384587349807,609796,13603,11:49:06.691637,hand
15,159,hand1,5,gabor,90,0.017076913512470152,4,4,-1,3,0.3727572278462503,-1,1,-1,incongruent,CR,c,1,1.22761893388315,618180,13603,11:49:06.691637,hand
15,160,hand1,5,cue,black,-1,-1,-1,3,3,-1,0.34246077200714353,-1,1,none,none,-1,-1,-1,623013,13603,11:49:06.691637,hand
15,161,hand1,5,cue,white,-1,-1,-1,4,4,-1,0.2662768859058815,-1,1,none,none,-1,-1,-1,625779,13603,11:49:06.691637,hand
15,162,hand1,5,cue,black,-1,-1,-1,3,3,-1,0.18021280247785398,-1,1,none,none,-1,-1,-1,628479,13603,11:49:06.691637,hand
15,163,hand1,5,cue,black,-1,-1,-1,3,3,-1,0.2209942481354119,-1,1,none,none,-1,-1,-1,631197,13603,11:49:06.691637,hand
15,164,hand1,5,gabor,0,0.017076913512470152,3,3,-1,4,0.3397862452143272,-1,1,-1,incongruent,hit,c,3,1.662721243652868,633947,13603,11:49:06.691637,hand
15,165,hand1,5,cue,black,-1,-1,-1,3,3,-1,0.189483983367154,-1,1,none,none,-1,-1,-1,639380,13603,11:49:06.691637,hand
15,166,hand1,5,cue,black,-1,-1,-1,3,3,-1,0.20637017370836475,-1,1,none,none,-1,-1,-1,641896,13603,11:49:06.691637,hand
15,167,hand1,5,cue,black,-1,-1,-1,3,3,-1,0.25026313273292544,-1,1,none,none,-1,-1,-1,644529,13603,11:49:06.691637,hand
15,168,hand1,5,cue,black,-1,-1,-1,3,3,-1,0.21415490905292245,-1,1,none,none,-1,-1,-1,647212,13603,11:49:06.691637,hand
15,169,hand1,5,gabor,0,0.017076913512470152,4,3,-1,4,0.5317949972336464,-1,0,-1,congruent,miss,3,1,1.4058126894296947,649964,13603,11:49:06.691637,hand
15,170,hand1,5,cue,black,-1,-1,-1,3,3,-1,0.2145784557942534,-1,1,none,none,-1,-1,-1,655245,13603,11:49:06.691637,hand
15,171,hand1,5,cue,white,-1,-1,-1,4,4,-1,0.20953583040318335,-1,1,none,none,-1,-1,-1,657895,13603,11:49:06.691637,hand
15,172,hand1,5,cue,white,-1,-1,-1,4,4,-1,0.1850730301330259,-1,1,none,none,-1,-1,-1,660629,13603,11:49:06.691637,hand
15,173,hand1,5,gabor,0,0.017076913512470152,3,3,-1,3,0.43000016511814465,-1,1,-1,congruent,hit,q,4,0.9930489183047939,663245,13603,11:49:06.691637,hand
15,174,hand1,5,gabor,90,0.017076913512470152,4,4,-1,4,0.4518299100795957,-1,1,-1,congruent,CR,q,2,2.485835759863221,668096,13603,11:49:06.691637,hand
15,175,hand1,5,gabor,0,0.017076913512470152,3,3,-1,4,0.5494971774432997,-1,1,-1,incongruent,hit,3,3,1.5173809681978128,674479,13603,11:49:06.691637,hand
15,176,hand1,5,cue,white,-1,-1,-1,4,4,-1,0.18332354785479765,-1,1,none,none,-1,-1,-1,679894,13603,11:49:06.691637,hand
15,177,hand1,5,cue,white,-1,-1,-1,4,4,-1,0.1681296245028534,-1,1,none,none,-1,-1,-1,682611,13603,11:49:06.691637,hand
15,178,hand1,5,cue,white,-1,-1,-1,4,4,-1,0.28102691076992414,-1,1,none,none,-1,-1,-1,685211,13603,11:49:06.691637,hand
15,179,hand1,5,cue,white,-1,-1,-1,4,4,-1,0.1937424904931504,-1,1,none,none,-1,-1,-1,688029,13603,11:49:06.691637,hand
15,180,hand1,5,gabor,0,0.017076913512470152,3,3,-1,3,0.4985195063818537,-1,1,-1,congruent,hit,3,2,0.6215500428343148,690544,13603,11:49:06.691637,hand
15,181,hand1,6,gabor,0,0.017076913512470152,3,3,-1,3,0.4051998330387505,-1,1,-1,congruent,hit,4,4,0.622027348908432,699526,13603,11:49:06.691637,hand
15,182,hand1,6,cue,white,-1,-1,-1,4,4,-1,0.3438972981707593,-1,1,none,none,-1,-1,-1,704011,13603,11:49:06.691637,hand
15,183,hand1,6,gabor,90,0.017076913512470152,4,4,-1,4,0.6996358573210273,-1,1,-1,congruent,CR,4,1,0.6115461990425501,706677,13603,11:49:06.691637,hand
15,184,hand1,6,cue,black,-1,-1,-1,3,3,-1,0.3654805181940901,-1,1,none,none,-1,-1,-1,711428,13603,11:49:06.691637,hand
15,185,hand1,6,cue,black,-1,-1,-1,3,3,-1,0.23426627534990985,-1,1,none,none,-1,-1,-1,714126,13603,11:49:06.691637,hand
15,186,hand1,6,cue,white,-1,-1,-1,4,4,-1,0.20222379318920503,-1,1,none,none,-1,-1,-1,716693,13603,11:49:06.691637,hand
15,187,hand1,6,gabor,0,0.017076913512470152,3,3,-1,3,0.40413923820733544,-1,1,-1,congruent,hit,c,2,2.307840529852001,719227,13603,11:49:06.691637,hand
15,188,hand1,6,cue,white,-1,-1,-1,4,4,-1,0.184647947411122,-1,1,none,none,-1,-1,-1,725176,13603,11:49:06.691637,hand
15,189,hand1,6,cue,white,-1,-1,-1,4,4,-1,0.18746493643538997,-1,1,none,none,-1,-1,-1,727793,13603,11:49:06.691637,hand
15,190,hand1,6,gabor,90,0.017076913512470152,4,4,-1,3,0.6192982947923156,-1,1,-1,incongruent,CR,q,2,1.3362830567098172,730309,13603,11:49:06.691637,hand
15,191,hand1,6,cue,white,-1,-1,-1,4,4,-1,0.14310734317905371,-1,1,none,none,-1,-1,-1,735609,13603,11:49:06.691637,hand
15,192,hand1,6,gabor,90,0.017076913512470152,4,4,-1,4,0.4368594719530847,-1,1,-1,congruent,CR,4,2,0.08383806306665065,738076,13603,11:49:06.691637,hand
15,193,hand1,6,gabor,0,0.017076913512470152,4,3,-1,3,0.7004364873805571,-1,0,-1,incongruent,miss,3,1,0.9925466525405682,742044,13603,11:49:06.691637,hand
15,194,hand1,6,cue,black,-1,-1,-1,3,3,-1,0.1853571866049606,-1,1,none,none,-1,-1,-1,747176,13603,11:49:06.691637,hand
15,195,hand1,6,gabor,90,0.017076913512470152,4,4,-1,3,0.47721545089325446,-1,1,-1,incongruent,CR,c,2,1.803262346694737,749792,13603,11:49:06.691637,hand
15,196,hand1,6,cue,black,-1,-1,-1,3,3,-1,0.5198565854602748,-1,1,none,none,-1,-1,-1,755510,13603,11:49:06.691637,hand
15,197,hand1,6,cue,white,-1,-1,-1,4,4,-1,0.17979808762720495,-1,1,none,none,-1,-1,-1,758459,13603,11:49:06.691637,hand
15,198,hand1,6,cue,black,-1,-1,-1,3,3,-1,0.19450740899583252,-1,1,none,none,-1,-1,-1,761075,13603,11:49:06.691637,hand
15,199,hand1,6,cue,black,-1,-1,-1,4,3,-1,0.25335391035787325,-1,0,none,none,-1,-1,-1,763592,13603,11:49:06.691637,hand
15,200,hand1,6,cue,white,-1,-1,-1,4,4,-1,0.29733518828606975,-1,1,none,none,-1,-1,-1,766376,13603,11:49:06.691637,hand
15,201,hand1,6,gabor,90,0.017076913512470152,4,4,-1,3,0.5770780189991456,-1,1,-1,incongruent,CR,4,3,1.2589867364208658,769008,13603,11:49:06.691637,hand
15,202,hand1,6,cue,black,-1,-1,-1,3,3,-1,0.22983381838366768,-1,1,none,none,-1,-1,-1,774076,13603,11:49:06.691637,hand
15,203,hand1,6,gabor,0,0.017076913512470152,3,3,-1,4,0.4286446619480557,-1,1,-1,incongruent,hit,3,1,0.808579528676546,776742,13603,11:49:06.691637,hand
15,204,hand1,6,cue,black,-1,-1,-1,3,3,-1,0.18139320382215374,-1,1,none,none,-1,-1,-1,781324,13603,11:49:06.691637,hand
15,205,hand1,6,cue,white,-1,-1,-1,4,4,-1,0.188311261927538,-1,1,none,none,-1,-1,-1,784042,13603,11:49:06.691637,hand
15,206,hand1,6,gabor,0,0.017076913512470152,3,3,-1,4,0.569170021185073,-1,1,-1,incongruent,hit,3,4,0.7390498959566685,786758,13603,11:49:06.691637,hand
15,207,hand1,6,cue,white,-1,-1,-1,4,4,-1,0.1788304196415993,-1,1,none,none,-1,-1,-1,791308,13603,11:49:06.691637,hand
15,208,hand1,6,cue,black,-1,-1,-1,3,3,-1,0.2136253796275014,-1,1,none,none,-1,-1,-1,793925,13603,11:49:06.691637,hand
15,209,hand1,6,cue,white,-1,-1,-1,4,4,-1,0.17949242742179194,-1,1,none,none,-1,-1,-1,796475,13603,11:49:06.691637,hand
15,210,hand1,6,gabor,90,0.017076913512470152,3,4,-1,4,0.7973929795684853,-1,0,-1,incongruent,FA,c,1,1.9283222979506718,799192,13603,11:49:06.691637,hand
15,211,hand1,6,cue,black,-1,-1,-1,3,3,-1,0.18806012904542513,-1,1,none,none,-1,-1,-1,805140,13603,11:49:06.691637,hand
15,212,hand1,6,cue,white,-1,-1,-1,4,4,-1,0.19602111820177015,-1,1,none,none,-1,-1,-1,807657,13603,11:49:06.691637,hand
15,213,hand1,6,gabor,0,0.017076913512470152,3,3,-1,4,0.5958327301409554,-1,1,-1,incongruent,hit,c,3,1.5486842595364578,810291,13603,11:49:06.691637,hand
15,214,hand1,6,cue,white,-1,-1,-1,4,4,-1,0.20844297997200556,-1,1,none,none,-1,-1,-1,815674,13603,11:49:06.691637,hand
15,215,hand1,6,cue,black,-1,-1,-1,4,3,-1,0.32124657140275303,-1,0,none,none,-1,-1,-1,818206,13603,11:49:06.691637,hand
15,216,hand1,6,cue,black,-1,-1,-1,3,3,-1,0.24523010722305116,-1,1,none,none,-1,-1,-1,821057,13603,11:49:06.691637,hand
15,217,hand1,7,cue,black,-1,-1,-1,3,3,-1,0.16918292342506902,-1,1,none,none,-1,-1,-1,836306,13603,11:49:06.691637,hand
15,218,hand1,7,cue,white,-1,-1,-1,4,4,-1,0.17422362883962705,-1,1,none,none,-1,-1,-1,838855,13603,11:49:06.691637,hand
15,219,hand1,7,cue,black,-1,-1,-1,3,3,-1,0.26502429345828205,-1,1,none,none,-1,-1,-1,841357,13603,11:49:06.691637,hand
15,220,hand1,7,gabor,0,0.017076913512470152,3,3,-1,3,0.4726996669610344,-1,1,-1,congruent,hit,4,3,1.0997558174317419,844056,13603,11:49:06.691637,hand
15,221,hand1,7,cue,white,-1,-1,-1,4,4,-1,0.4454974447035056,-1,1,none,none,-1,-1,-1,848972,13603,11:49:06.691637,hand
15,222,hand1,7,gabor,0,0.017076913512470152,3,3,-1,4,0.5472504213389584,-1,1,-1,incongruent,hit,q,3,1.3492797593426076,851957,13603,11:49:06.691637,hand
15,223,hand1,7,cue,white,-1,-1,-1,4,4,-1,0.2501325743542111,-1,1,none,none,-1,-1,-1,857306,13603,11:49:06.691637,hand
15,224,hand1,7,cue,black,-1,-1,-1,3,3,-1,0.2209170650935448,-1,1,none,none,-1,-1,-1,859989,13603,11:49:06.691637,hand
15,225,hand1,7,cue,black,-1,-1,-1,3,3,-1,0.20076806726365248,-1,1,none,none,-1,-1,-1,862639,13603,11:49:06.691637,hand
15,226,hand1,7,gabor,90,0.017076913512470152,4,4,-1,4,0.5625514793609909,-1,1,-1,congruent,CR,4,4,0.885506061556498,865373,13603,11:49:06.691637,hand
15,227,hand1,7,cue,white,-1,-1,-1,4,4,-1,0.2461612956612953,-1,1,none,none,-1,-1,-1,870256,13603,11:49:06.691637,hand
15,228,hand1,7,gabor,0,0.017076913512470152,3,3,-1,3,0.489239109607297,-1,1,-1,congruent,hit,c,3,1.429130415916461,873039,13603,11:49:06.691637,hand
15,229,hand1,7,cue,black,-1,-1,-1,3,3,-1,0.6189046996792058,-1,1,none,none,-1,-1,-1,878288,13603,11:49:06.691637,hand
15,230,hand1,7,cue,black,-1,-1,-1,3,3,-1,0.21049274652204986,-1,1,none,none,-1,-1,-1,881338,13603,11:49:06.691637,hand
15,231,hand1,7,cue,white,-1,-1,-1,4,4,-1,0.2025628609794694,-1,1,none,none,-1,-1,-1,883971,13603,11:49:06.691637,hand
15,232,hand1,7,cue,white,-1,-1,-1,4,4,-1,0.2533765660764402,-1,1,none,none,-1,-1,-1,886604,13603,11:49:06.691637,hand
15,233,hand1,7,cue,white,-1,-1,-1,4,4,-1,0.2192781734424898,-1,1,none,none,-1,-1,-1,889187,13603,11:49:06.691637,hand
15,234,hand1,7,gabor,0,0.017076913512470152,3,3,-1,3,0.4999886721407165,-1,1,-1,congruent,hit,q,3,1.405055066836212,891837,13603,11:49:06.691637,hand
15,235,hand1,7,gabor,90,0.017076913512470152,4,4,-1,4,0.5958465539692952,-1,1,-1,congruent,CR,3,4,1.1636787357647336,896988,13603,11:49:06.691637,hand
15,236,hand1,7,gabor,90,0.017076913512470152,4,4,-1,4,0.7364168406484168,-1,1,-1,congruent,CR,4,2,1.0534106648528905,902071,13603,11:49:06.691637,hand
15,237,hand1,7,cue,black,-1,-1,-1,3,3,-1,0.20434152689540497,-1,1,none,none,-1,-1,-1,907304,13603,11:49:06.691637,hand
15,238,hand1,7,gabor,0,0.017076913512470152,3,3,-1,4,0.5438271038424318,-1,1,-1,incongruent,hit,4,3,0.9297595921048014,913604,13603,11:49:06.691637,hand
15,239,hand1,7,gabor,90,0.017076913512470152,4,4,-1,3,0.571510088130708,-1,1,-1,incongruent,CR,3,3,1.0254665638067308,918420,13603,11:49:06.691637,hand
15,240,hand1,7,cue,black,-1,-1,-1,3,3,-1,0.12335462842929701,-1,1,none,none,-1,-1,-1,923454,13603,11:49:06.691637,hand
15,241,hand1,7,gabor,0,0.017076913512470152,3,3,-1,4,0.41827064675180736,-1,1,-1,incongruent,hit,3,3,0.9390495887605539,925903,13603,11:49:06.691637,hand
15,242,hand1,7,cue,white,-1,-1,-1,4,4,-1,0.24877822316921083,-1,1,none,none,-1,-1,-1,930603,13603,11:49:06.691637,hand
15,243,hand1,7,cue,black,-1,-1,-1,3,3,-1,0.24670964085316882,-1,1,none,none,-1,-1,-1,933387,13603,11:49:06.691637,hand
15,244,hand1,7,cue,white,-1,-1,-1,4,4,-1,0.3195496964708582,-1,1,none,none,-1,-1,-1,935970,13603,11:49:06.691637,hand
15,245,hand1,7,cue,black,-1,-1,-1,3,3,-1,0.21537332592470193,-1,1,none,none,-1,-1,-1,938820,13603,11:49:06.691637,hand
15,246,hand1,7,cue,white,-1,-1,-1,4,4,-1,0.2102738692396997,-1,1,none,none,-1,-1,-1,941570,13603,11:49:06.691637,hand
15,247,hand1,7,gabor,90,0.017076913512470152,4,4,-1,3,0.5440909085673411,-1,1,-1,incongruent,CR,c,3,1.6461180577980485,944202,13603,11:49:06.691637,hand
15,248,hand1,7,cue,white,-1,-1,-1,4,4,-1,0.20077267520628084,-1,1,none,none,-1,-1,-1,949719,13603,11:49:06.691637,hand
15,249,hand1,7,cue,black,-1,-1,-1,3,3,-1,0.29065328724891515,-1,1,none,none,-1,-1,-1,952352,13603,11:49:06.691637,hand
15,250,hand1,7,cue,black,-1,-1,-1,3,3,-1,0.18547622512733142,-1,1,none,none,-1,-1,-1,954969,13603,11:49:06.691637,hand
15,251,hand1,7,cue,white,-1,-1,-1,4,4,-1,0.16235049625629472,-1,1,none,none,-1,-1,-1,957686,13603,11:49:06.691637,hand
15,252,hand1,7,gabor,90,0.017076913512470152,3,4,-1,3,0.5329938303484596,-1,0,-1,congruent,FA,3,2,0.6780553252651771,960185,13603,11:49:06.691637,hand
15,253,hand1,8,cue,black,-1,-1,-1,3,3,-1,0.20961954136373606,-1,1,none,none,-1,-1,-1,968519,13603,11:49:06.691637,hand
15,254,hand1,8,cue,white,-1,-1,-1,4,4,-1,0.17953735486435107,-1,1,none,none,-1,-1,-1,971185,13603,11:49:06.691637,hand
15,255,hand1,8,cue,white,-1,-1,-1,4,4,-1,0.16642314969021754,-1,1,none,none,-1,-1,-1,973903,13603,11:49:06.691637,hand
15,256,hand1,8,cue,white,-1,-1,-1,4,4,-1,0.20430965529112655,-1,1,none,none,-1,-1,-1,976602,13603,11:49:06.691637,hand
15,257,hand1,8,gabor,90,0.017076913512470152,4,4,-1,3,0.5280548836703929,-1,1,-1,incongruent,CR,3,1,0.6951592409027398,979234,13603,11:49:06.691637,hand
15,258,hand1,8,gabor,0,0.017076913512470152,3,3,-1,3,0.528818266192502,-1,1,-1,congruent,hit,q,4,1.3327426206674318,983903,13603,11:49:06.691637,hand
15,259,hand1,8,cue,white,-1,-1,-1,4,4,-1,0.22456002786248064,-1,1,none,none,-1,-1,-1,989001,13603,11:49:06.691637,hand
15,260,hand1,8,cue,white,-1,-1,-1,3,4,-1,0.21546010884731004,-1,0,none,none,-1,-1,-1,991551,13603,11:49:06.691637,hand
15,261,hand1,8,gabor,90,0.017076913512470152,4,4,-1,3,0.5682518885846548,-1,1,-1,incongruent,CR,q,3,1.5392982640728405,994101,13603,11:49:06.691637,hand
15,262,hand1,8,cue,white,-1,-1,-1,4,4,-1,0.17508953808828664,-1,1,none,none,-1,-1,-1,999652,13603,11:49:06.691637,hand
15,263,hand1,8,cue,black,-1,-1,-1,3,3,-1,0.22377782957437375,-1,1,none,none,-1,-1,-1,1002251,13603,11:49:06.691637,hand
15,264,hand1,8,gabor,90,0.017076913512470152,4,4,-1,4,0.5295010097156592,-1,1,-1,congruent,CR,q,3,1.9924936611987505,1005002,13603,11:49:06.691637,hand
15,265,hand1,8,cue,black,-1,-1,-1,3,3,-1,0.16522201260340807,-1,1,none,none,-1,-1,-1,1010767,13603,11:49:06.691637,hand
15,266,hand1,8,gabor,0,0.017076913512470152,4,3,-1,3,0.6220930120935009,-1,0,-1,incongruent,miss,4,1,3.195065354068447,1013267,13603,11:49:06.691637,hand
15,267,hand1,8,gabor,0,0.017076913512470152,3,3,-1,4,0.5836850409664294,-1,1,-1,incongruent,hit,3,2,0.7386040774918001,1020417,13603,11:49:06.691637,hand
15,268,hand1,8,gabor,90,0.017076913512470152,4,4,-1,4,0.517256937737784,-1,1,-1,congruent,CR,3,3,0.7903781546651771,1024967,13603,11:49:06.691637,hand
15,269,hand1,8,cue,black,-1,-1,-1,3,3,-1,0.20222993711331583,-1,1,none,none,-1,-1,-1,1029616,13603,11:49:06.691637,hand
15,270,hand1,8,cue,white,-1,-1,-1,4,4,-1,0.18214890643957915,-1,1,none,none,-1,-1,-1,1032350,13603,11:49:06.691637,hand
15,271,hand1,8,cue,white,-1,-1,-1,4,4,-1,0.17886997115056147,-1,1,none,none,-1,-1,-1,1034867,13603,11:49:06.691637,hand
15,272,hand1,8,cue,black,-1,-1,-1,3,3,-1,0.16772758149409128,-1,1,none,none,-1,-1,-1,1037483,13603,11:49:06.691637,hand
15,273,hand1,8,cue,black,-1,-1,-1,3,3,-1,0.20064096484156835,-1,1,none,none,-1,-1,-1,1039983,13603,11:49:06.691637,hand
15,274,hand1,8,cue,white,-1,-1,-1,4,4,-1,0.3203944859819785,-1,1,none,none,-1,-1,-1,1042616,13603,11:49:06.691637,hand
15,275,hand1,8,cue,black,-1,-1,-1,3,3,-1,0.16328360467105085,-1,1,none,none,-1,-1,-1,1045266,13603,11:49:06.691637,hand
15,276,hand1,8,cue,white,-1,-1,-1,4,4,-1,0.32022629607035924,-1,1,none,none,-1,-1,-1,1047967,13603,11:49:06.691637,hand
15,277,hand1,8,cue,black,-1,-1,-1,3,3,-1,0.2838477397463066,-1,1,none,none,-1,-1,-1,1053649,13603,11:49:06.691637,hand
15,278,hand1,8,cue,black,-1,-1,-1,3,3,-1,0.18067244477106215,-1,1,none,none,-1,-1,-1,1056366,13603,11:49:06.691637,hand
15,279,hand1,8,gabor,90,0.017076913512470152,3,4,-1,4,0.5195885567882215,-1,0,-1,incongruent,FA,4,1,0.4224615707171324,1058882,13603,11:49:06.691637,hand
15,280,hand1,8,cue,black,-1,-1,-1,3,3,-1,0.25523548699584353,-1,1,none,none,-1,-1,-1,1063266,13603,11:49:06.691637,hand
15,281,hand1,8,cue,white,-1,-1,-1,4,4,-1,0.17233821224863277,-1,1,none,none,-1,-1,-1,1065848,13603,11:49:06.691637,hand
15,282,hand1,8,cue,black,-1,-1,-1,3,3,-1,0.13902777783096099,-1,1,none,none,-1,-1,-1,1068550,13603,11:49:06.691637,hand
15,283,hand1,8,gabor,0,0.017076913512470152,3,3,-1,3,0.41788281156686935,-1,1,-1,congruent,hit,4,3,0.6717816111595312,1071116,13603,11:49:06.691637,hand
15,284,hand1,8,cue,white,-1,-1,-1,4,4,-1,0.20258820466506222,-1,1,none,none,-1,-1,-1,1075548,13603,11:49:06.691637,hand
15,285,hand1,8,gabor,0,0.017076913512470152,3,3,-1,4,0.4414351591412924,-1,1,-1,incongruent,hit,c,4,1.4193385374928766,1078081,13603,11:49:06.691637,hand
15,286,hand1,8,gabor,0,0.017076913512470152,3,3,-1,4,0.48423641972067344,-1,1,-1,incongruent,hit,4,3,0.5291780697252761,1083181,13603,11:49:06.691637,hand
15,287,hand1,8,gabor,90,0.017076913512470152,4,4,-1,3,0.5008737811508581,-1,1,-1,incongruent,CR,3,3,0.49878331110630825,1087432,13603,11:49:06.691637,hand
15,288,hand1,8,cue,black,-1,-1,-1,4,3,-1,0.3966344353866589,-1,0,none,none,-1,-1,-1,1091866,13603,11:49:06.691637,hand
15,289,hand1,9,cue,black,-1,-1,-1,3,3,-1,0.1782429069362479,-1,1,none,none,-1,-1,-1,1116213,13603,11:49:06.691637,hand
15,290,hand1,9,cue,white,-1,-1,-1,4,4,-1,0.16611249754714663,-1,1,none,none,-1,-1,-1,1119014,13603,11:49:06.691637,hand
15,291,hand1,9,cue,black,-1,-1,-1,3,3,-1,0.20294954417840927,-1,1,none,none,-1,-1,-1,1121715,13603,11:49:06.691637,hand
15,292,hand1,9,cue,black,-1,-1,-1,3,3,-1,0.157841240243215,-1,1,none,none,-1,-1,-1,1124448,13603,11:49:06.691637,hand
15,293,hand1,9,gabor,90,0.017076913512470152,3,4,-1,4,0.5403872745514491,-1,0,-1,incongruent,FA,3,1,0.935684638539442,1126930,13603,11:49:06.691637,hand
15,294,hand1,9,cue,black,-1,-1,-1,3,3,-1,0.17738813354890226,-1,1,none,none,-1,-1,-1,1131647,13603,11:49:06.691637,hand
15,295,hand1,9,gabor,90,0.017076913512470152,4,4,-1,3,0.5622872906410521,-1,1,-1,incongruent,CR,4,1,0.5062305146416293,1134347,13603,11:49:06.691637,hand
15,296,hand1,9,gabor,0,0.017076913512470152,3,3,-1,3,0.399943322303443,-1,1,-1,congruent,hit,c,4,1.0078807341528773,1138647,13603,11:49:06.691637,hand
15,297,hand1,9,cue,black,-1,-1,-1,3,3,-1,0.24760626972056343,-1,1,none,none,-1,-1,-1,1143396,13603,11:49:06.691637,hand
15,298,hand1,9,cue,black,-1,-1,-1,3,3,-1,0.21953737022431596,-1,1,none,none,-1,-1,-1,1145979,13603,11:49:06.691637,hand
15,299,hand1,9,gabor,0,0.017076913512470152,3,3,-1,3,0.3754206187777527,-1,1,-1,congruent,hit,c,4,1.398304430652388,1148529,13603,11:49:06.691637,hand
15,300,hand1,9,gabor,0,0.017076913512470152,3,3,-1,4,0.6830745269467116,-1,1,-1,incongruent,hit,4,1,0.4050627467408958,1153746,13603,11:49:06.691637,hand
15,301,hand1,9,cue,white,-1,-1,-1,4,4,-1,0.18277443467286503,-1,1,none,none,-1,-1,-1,1158179,13603,11:49:06.691637,hand
15,302,hand1,9,cue,white,-1,-1,-1,3,4,-1,0.1747151427366589,-1,0,none,none,-1,-1,-1,1160796,13603,11:49:06.691637,hand
15,303,hand1,9,cue,white,-1,-1,-1,4,4,-1,0.17655908784263374,-1,1,none,none,-1,-1,-1,1163496,13603,11:49:06.691637,hand
15,304,hand1,9,gabor,0,0.017076913512470152,4,3,-1,3,0.6533847835744382,-1,0,-1,incongruent,miss,c,1,1.3173578516848465,1166095,13603,11:49:06.691637,hand
15,305,hand1,9,cue,white,-1,-1,-1,4,4,-1,0.2332970713832765,-1,1,none,none,-1,-1,-1,1171311,13603,11:49:06.691637,hand
15,306,hand1,9,cue,white,-1,-1,-1,4,4,-1,0.22005192383539907,-1,1,none,none,-1,-1,-1,1173979,13603,11:49:06.691637,hand
15,307,hand1,9,gabor,90,0.017076913512470152,4,4,-1,3,0.44089372586358877,-1,1,-1,incongruent,CR,4,2,0.7667724317534521,1176529,13603,11:49:06.691637,hand
15,308,hand1,9,cue,black,-1,-1,-1,3,3,-1,0.1616673687376533,-1,1,none,none,-1,-1,-1,1180978,13603,11:49:06.691637,hand
15,309,hand1,9,cue,black,-1,-1,-1,3,3,-1,0.2594060592145979,-1,1,none,none,-1,-1,-1,1183662,13603,11:49:06.691637,hand
15,310,hand1,9,cue,white,-1,-1,-1,4,4,-1,0.3102635397681297,-1,1,none,none,-1,-1,-1,1186445,13603,11:49:06.691637,hand
15,311,hand1,9,cue,black,-1,-1,-1,3,3,-1,0.15522853668289827,-1,1,none,none,-1,-1,-1,1189078,13603,11:49:06.691637,hand
15,312,hand1,9,gabor,90,0.017076913512470152,3,4,-1,4,0.6018875669637964,-1,0,-1,incongruent,FA,3,2,0.7628249607651014,1191762,13603,11:49:06.691637,hand
15,313,hand1,9,cue,black,-1,-1,-1,3,3,-1,0.15269071219245234,-1,1,none,none,-1,-1,-1,1196361,13603,11:49:06.691637,hand
15,314,hand1,9,cue,white,-1,-1,-1,4,4,-1,0.17453466497772752,-1,1,none,none,-1,-1,-1,1198844,13603,11:49:06.691637,hand
15,315,hand1,9,cue,white,-1,-1,-1,4,4,-1,0.2644095170917353,-1,1,none,none,-1,-1,-1,1201344,13603,11:49:06.691637,hand
15,316,hand1,9,cue,black,-1,-1,-1,3,3,-1,0.256335249341646,-1,1,none,none,-1,-1,-1,1204145,13603,11:49:06.691637,hand
15,317,hand1,9,gabor,90,0.017076913512470152,4,4,-1,4,0.5201637816467155,-1,1,-1,congruent,CR,c,1,1.1301002726750085,1206928,13603,11:49:06.691637,hand
15,318,hand1,9,cue,black,-1,-1,-1,3,3,-1,0.14281473881192142,-1,1,none,none,-1,-1,-1,1211811,13603,11:49:06.691637,hand
15,319,hand1,9,gabor,0,0.017076913512470152,3,3,-1,4,0.6196185468161275,-1,1,-1,incongruent,hit,c,1,1.4565945229223871,1214277,13603,11:49:06.691637,hand
15,320,hand1,9,gabor,0,0.017076913512470152,3,3,-1,4,0.4983021650800765,-1,1,-1,incongruent,hit,4,4,0.9373289061240939,1219593,13603,11:49:06.691637,hand
15,321,hand1,9,gabor,90,0.017076913512470152,4,4,-1,3,0.39997442591720755,-1,1,-1,incongruent,CR,3,4,0.9040576392203548,1224377,13603,11:49:06.691637,hand
15,322,hand1,9,cue,white,-1,-1,-1,4,4,-1,0.24393143534734918,-1,1,none,none,-1,-1,-1,1229128,13603,11:49:06.691637,hand
15,323,hand1,9,cue,white,-1,-1,-1,4,4,-1,0.21567975412017404,-1,1,none,none,-1,-1,-1,1231693,13603,11:49:06.691637,hand
15,324,hand1,9,cue,white,-1,-1,-1,4,4,-1,0.21154028551563897,-1,1,none,none,-1,-1,-1,1234343,13603,11:49:06.691637,hand
15,325,hand1,10,cue,black,-1,-1,-1,3,3,-1,0.2052826992098744,-1,1,none,none,-1,-1,-1,1239459,13603,11:49:06.691637,hand
15,326,hand1,10,gabor,0,0.017076913512470152,3,3,-1,3,0.5419804707703406,-1,1,-1,congruent,hit,c,2,1.918920942677687,1242210,13603,11:49:06.691637,hand
15,327,hand1,10,cue,black,-1,-1,-1,3,3,-1,0.2487989589121753,-1,1,none,none,-1,-1,-1,1248111,13603,11:49:06.691637,hand
15,328,hand1,10,cue,white,-1,-1,-1,4,4,-1,0.14756783179791455,-1,1,none,none,-1,-1,-1,1250894,13603,11:49:06.691637,hand
15,329,hand1,10,cue,white,-1,-1,-1,4,4,-1,0.20455157228752796,-1,1,none,none,-1,-1,-1,1253577,13603,11:49:06.691637,hand
15,330,hand1,10,cue,white,-1,-1,-1,4,4,-1,0.252224964375273,-1,1,none,none,-1,-1,-1,1256109,13603,11:49:06.691637,hand
15,331,hand1,10,cue,black,-1,-1,-1,3,3,-1,0.27717467059937917,-1,1,none,none,-1,-1,-1,1258893,13603,11:49:06.691637,hand
15,332,hand1,10,cue,black,-1,-1,-1,3,3,-1,0.17189738572187707,-1,1,none,none,-1,-1,-1,1261610,13603,11:49:06.691637,hand
15,333,hand1,10,cue,black,-1,-1,-1,3,3,-1,0.21786353500601763,-1,1,none,none,-1,-1,-1,1264310,13603,11:49:06.691637,hand
15,334,hand1,10,cue,black,-1,-1,-1,3,3,-1,0.18767382984196956,-1,1,none,none,-1,-1,-1,1266859,13603,11:49:06.691637,hand
15,335,hand1,10,cue,black,-1,-1,-1,3,3,-1,0.2855419267111756,-1,1,none,none,-1,-1,-1,1269576,13603,11:49:06.691637,hand
15,336,hand1,10,cue,white,-1,-1,-1,4,4,-1,0.16134097279064008,-1,1,none,none,-1,-1,-1,1272393,13603,11:49:06.691637,hand
15,337,hand1,10,cue,black,-1,-1,-1,3,3,-1,0.1432359815817108,-1,1,none,none,-1,-1,-1,1275093,13603,11:49:06.691637,hand
15,338,hand1,10,gabor,90,0.017076913512470152,3,4,-1,4,0.5630095856731714,-1,0,-1,incongruent,FA,4,1,0.5560608079490521,1277759,13603,11:49:06.691637,hand
15,339,hand1,10,cue,white,-1,-1,-1,4,4,-1,0.149836475630309,-1,1,none,none,-1,-1,-1,1282125,13603,11:49:06.691637,hand
15,340,hand1,10,gabor,0,0.017076913512470152,3,3,-1,4,0.4305212466483681,-1,1,-1,incongruent,hit,3,4,1.2555783947386772,1284809,13603,11:49:06.691637,hand
15,341,hand1,10,cue,white,-1,-1,-1,4,4,-1,0.15335463994870224,-1,1,none,none,-1,-1,-1,1289824,13603,11:49:06.691637,hand
15,342,hand1,10,cue,black,-1,-1,-1,3,3,-1,0.2072395389141093,-1,1,none,none,-1,-1,-1,1292509,13603,11:49:06.691637,hand
15,343,hand1,10,cue,black,-1,-1,-1,3,3,-1,0.1990999919744354,-1,1,none,none,-1,-1,-1,1295041,13603,11:49:06.691637,hand
15,344,hand1,10,gabor,0,0.017076913512470152,3,3,-1,3,0.4848492761111629,-1,1,-1,congruent,hit,4,3,0.5588536052737254,1297575,13603,11:49:06.691637,hand
15,345,hand1,10,cue,white,-1,-1,-1,4,4,-1,0.14975238067472674,-1,1,none,none,-1,-1,-1,1302059,13603,11:49:06.691637,hand
15,346,hand1,10,cue,white,-1,-1,-1,4,4,-1,0.18055609421526242,-1,1,none,none,-1,-1,-1,1304641,13603,11:49:06.691637,hand
15,347,hand1,10,gabor,0,0.017076913512470152,3,3,-1,3,0.6873276581400205,-1,1,-1,congruent,hit,c,1,1.121309469821881,1307257,13603,11:49:06.691637,hand
15,348,hand1,10,cue,black,-1,-1,-1,4,3,-1,0.31931238741753987,-1,0,none,none,-1,-1,-1,1312407,13603,11:49:06.691637,hand
15,349,hand1,10,cue,black,-1,-1,-1,3,3,-1,0.25308242572873496,-1,1,none,none,-1,-1,-1,1315157,13603,11:49:06.691637,hand
15,350,hand1,10,gabor,90,0.017076913512470152,3,4,-1,3,0.5096799438138078,-1,0,-1,congruent,FA,c,1,1.1896548612453444,1317942,13603,11:49:06.691637,hand
15,351,hand1,10,gabor,90,0.017076913512470152,3,4,-1,4,0.5414325095739514,-1,0,-1,incongruent,FA,q,1,1.4073621101920253,1322873,13603,11:49:06.691637,hand
15,352,hand1,10,cue,white,-1,-1,-1,4,4,-1,0.24623041480299435,-1,1,none,none,-1,-1,-1,1328156,13603,11:49:06.691637,hand
15,353,hand1,10,gabor,90,0.017076913512470152,4,4,-1,3,0.6210531530041408,-1,1,-1,incongruent,CR,q,1,1.1459204922507524,1330942,13603,11:49:06.691637,hand
15,354,hand1,10,gabor,90,0.017076913512470152,4,4,-1,3,0.556632960845036,-1,1,-1,incongruent,CR,3,1,0.6826659560192638,1336040,13603,11:49:06.691637,hand
15,355,hand1,10,gabor,0,0.017076913512470152,3,3,-1,4,0.5174546952825949,-1,1,-1,incongruent,hit,4,2,0.6203308579720215,1340724,13603,11:49:06.691637,hand
15,356,hand1,10,cue,white,-1,-1,-1,4,4,-1,0.18921749067567362,-1,1,none,none,-1,-1,-1,1345106,13603,11:49:06.691637,hand
15,357,hand1,10,gabor,0,0.017076913512470152,3,3,-1,4,0.43608188160715144,-1,1,-1,incongruent,hit,c,3,1.1179187919201468,1347622,13603,11:49:06.691637,hand
15,358,hand1,10,gabor,90,0.017076913512470152,4,4,-1,4,0.5527338732563294,-1,1,-1,congruent,CR,q,3,1.321714661590704,1352423,13603,11:49:06.691637,hand
15,359,hand1,10,cue,white,-1,-1,-1,4,4,-1,0.19335158334661173,-1,1,none,none,-1,-1,-1,1357639,13603,11:49:06.691637,hand
15,360,hand1,10,cue,white,-1,-1,-1,4,4,-1,0.2013682518118003,-1,1,none,none,-1,-1,-1,1360155,13603,11:49:06.691637,hand
15,361,hand1,11,gabor,90,0.017076913512470152,3,4,-1,3,0.3779880109009355,-1,0,-1,congruent,FA,3,3,1.109814572542291,1366340,13603,11:49:06.691637,hand
15,362,hand1,11,gabor,90,0.017076913512470152,4,4,-1,4,0.45170933557665194,-1,1,-1,congruent,CR,c,3,1.2846395379156093,1371072,13603,11:49:06.691637,hand
15,363,hand1,11,gabor,90,0.017076913512470152,4,4,-1,4,0.35938920182388756,-1,1,-1,congruent,CR,4,3,1.2223040558728826,1376038,13603,11:49:06.691637,hand
15,364,hand1,11,cue,white,-1,-1,-1,4,4,-1,0.16133636484755698,-1,1,none,none,-1,-1,-1,1381056,13603,11:49:06.691637,hand
15,365,hand1,11,cue,white,-1,-1,-1,4,4,-1,0.18884962324318622,-1,1,none,none,-1,-1,-1,1386572,13603,11:49:06.691637,hand
15,366,hand1,11,cue,white,-1,-1,-1,4,4,-1,0.17565516306513018,-1,1,none,none,-1,-1,-1,1389289,13603,11:49:06.691637,hand
15,367,hand1,11,cue,black,-1,-1,-1,3,3,-1,0.04335882165696603,-1,1,none,none,-1,-1,-1,1391788,13603,11:49:06.691637,hand
15,368,hand1,11,cue,white,-1,-1,-1,4,4,-1,0.18643160526517022,-1,1,none,none,-1,-1,-1,1394154,13603,11:49:06.691637,hand
15,369,hand1,11,cue,black,-1,-1,-1,3,3,-1,0.1552692401769491,-1,1,none,none,-1,-1,-1,1396872,13603,11:49:06.691637,hand
15,370,hand1,11,cue,white,-1,-1,-1,4,4,-1,0.7331075697366032,-1,1,none,none,-1,-1,-1,1399454,13603,11:49:06.691637,hand
15,371,hand1,11,gabor,0,0.017076913512470152,3,3,-1,4,0.6228126191585943,-1,1,-1,incongruent,hit,c,1,1.06880272974513,1402723,13603,11:49:06.691637,hand
15,372,hand1,11,cue,black,-1,-1,-1,4,3,-1,0.4056533314078479,-1,0,none,none,-1,-1,-1,1407754,13603,11:49:06.691637,hand
15,373,hand1,11,cue,black,-1,-1,-1,3,3,-1,0.13440255525802058,-1,1,none,none,-1,-1,-1,1410587,13603,11:49:06.691637,hand
15,374,hand1,11,cue,black,-1,-1,-1,3,3,-1,0.15627223572391813,-1,1,none,none,-1,-1,-1,1413154,13603,11:49:06.691637,hand
15,375,hand1,11,gabor,90,0.017076913512470152,4,4,-1,4,0.39321265387161475,-1,1,-1,congruent,CR,3,4,0.5661990500725551,1415637,13603,11:49:06.691637,hand
15,376,hand1,11,cue,black,-1,-1,-1,3,3,-1,0.34081458444597956,-1,1,none,none,-1,-1,-1,1423704,13603,11:49:06.691637,hand
15,377,hand1,11,cue,black,-1,-1,-1,4,3,-1,0.33664401222813467,-1,0,none,none,-1,-1,-1,1426571,13603,11:49:06.691637,hand
15,378,hand1,11,gabor,0,0.017076913512470152,3,3,-1,3,0.5202862761257165,-1,1,-1,congruent,hit,q,1,1.0892619957230636,1429337,13603,11:49:06.691637,hand
15,379,hand1,11,cue,white,-1,-1,-1,4,4,-1,0.2081945350564638,-1,1,none,none,-1,-1,-1,1434387,13603,11:49:06.691637,hand
15,380,hand1,11,cue,black,-1,-1,-1,3,3,-1,0.1778923192887305,-1,1,none,none,-1,-1,-1,1436920,13603,11:49:06.691637,hand
15,381,hand1,11,cue,white,-1,-1,-1,4,4,-1,0.20679640841581204,-1,1,none,none,-1,-1,-1,1439420,13603,11:49:06.691637,hand
15,382,hand1,11,gabor,90,0.017076913512470152,3,4,-1,3,0.4166762985469177,-1,0,-1,congruent,FA,4,1,2.241577928568404,1442154,13603,11:49:06.691637,hand
15,383,hand1,11,gabor,90,0.017076913512470152,3,4,-1,3,0.6203803933567542,-1,0,-1,congruent,FA,4,1,0.5892594997540073,1448053,13603,11:49:06.691637,hand
15,384,hand1,11,cue,white,-1,-1,-1,4,4,-1,0.2000476922080452,-1,1,none,none,-1,-1,-1,1452602,13603,11:49:06.691637,hand
15,385,hand1,11,gabor,0,0.017076913512470152,3,3,-1,3,0.4618602495434061,-1,1,-1,congruent,hit,c,3,1.3928198267490188,1455236,13603,11:49:06.691637,hand
15,386,hand1,11,cue,black,-1,-1,-1,3,3,-1,0.16658788364475186,-1,1,none,none,-1,-1,-1,1460319,13603,11:49:06.691637,hand
15,387,hand1,11,cue,black,-1,-1,-1,4,3,-1,0.47244469412635226,-1,0,none,none,-1,-1,-1,1462919,13603,11:49:06.691637,hand
15,388,hand1,11,cue,black,-1,-1,-1,3,3,-1,0.34427207751787137,-1,1,none,none,-1,-1,-1,1465719,13603,11:49:06.691637,hand
15,389,hand1,11,cue,white,-1,-1,-1,4,4,-1,0.22623501506586763,-1,1,none,none,-1,-1,-1,1468603,13603,11:49:06.691637,hand
15,390,hand1,11,gabor,0,0.017076913512470152,4,3,-1,3,0.4439672237031118,-1,0,-1,incongruent,miss,3,2,0.6698869786832802,1471253,13603,11:49:06.691637,hand
15,391,hand1,11,gabor,0,0.017076913512470152,3,3,-1,4,0.45368844700442423,-1,1,-1,incongruent,hit,3,2,0.8636886044423591,1475803,13603,11:49:06.691637,hand
15,392,hand1,11,cue,black,-1,-1,-1,3,3,-1,0.17546700540151505,-1,1,none,none,-1,-1,-1,1480352,13603,11:49:06.691637,hand
15,393,hand1,11,cue,white,-1,-1,-1,4,4,-1,0.1822268574710506,-1,1,none,none,-1,-1,-1,1482851,13603,11:49:06.691637,hand
15,394,hand1,11,cue,white,-1,-1,-1,4,4,-1,0.21421058836131124,-1,1,none,none,-1,-1,-1,1485468,13603,11:49:06.691637,hand
15,395,hand1,11,cue,white,-1,-1,-1,4,4,-1,0.18985876271335655,-1,1,none,none,-1,-1,-1,1488019,13603,11:49:06.691637,hand
15,396,hand1,11,gabor,0,0.017076913512470152,3,3,-1,4,0.7067996723749275,-1,1,-1,incongruent,hit,c,1,1.3557573749162657,1490535,13603,11:49:06.691637,hand
