subject_id,trial,effector_order,block,condition,stim1,gabor.contrast,pressed_gabor,expected_gabor,pressed_cue,expected_cue,rt_gabor,rt_cue,accuracy_gabor,accuracy_cue,congruency,SDT,pressed_conf,conf,rt_conf,trial_start_time_rel2bloc,bloc_start_time_rel2exp,exp_start_date,effector
3,1,hand1,1,gabor,90,0.018278902818462617,4,4,-1,4,0.3603576377995523,-1,1,-1,congruent,CR,q,4,1.3753372918122295,0,50681,15:02:45.298788,hand
3,2,hand1,1,cue,blue,-1,-1,-1,3,3,-1,0.21008494358557073,-1,1,none,none,-1,-1,-1,5199,50681,15:02:45.298788,hand
3,3,hand1,1,cue,blue,-1,-1,-1,3,3,-1,0.34774569838964453,-1,1,none,none,-1,-1,-1,7950,50681,15:02:45.298788,hand
3,4,hand1,1,gabor,90,0.018278902818462617,4,4,-1,4,0.3485482484252316,-1,1,-1,congruent,CR,c,1,1.6345505854196745,10732,50681,15:02:45.298788,hand
3,5,hand1,1,gabor,0,0.018278902818462617,4,3,-1,3,0.38834551430227293,-1,0,-1,incongruent,miss,4,4,1.7192864293397179,18782,50681,15:02:45.298788,hand
3,6,hand1,1,cue,blue,-1,-1,-1,3,3,-1,0.3257588993774334,-1,1,none,none,-1,-1,-1,27164,50681,15:02:45.298788,hand
3,7,hand1,1,gabor,90,0.018278902818462617,4,4,-1,3,0.33147658838652205,-1,1,-1,incongruent,CR,q,3,1.3844468107085959,29831,50681,15:02:45.298788,hand
3,8,hand1,1,gabor,90,0.018278902818462617,4,4,-1,3,0.22431619089002197,-1,1,-1,incongruent,CR,q,4,1.9981441510421973,37614,50681,15:02:45.298788,hand
3,9,hand1,1,cue,yellow,-1,-1,-1,4,4,-1,0.5686128441029723,-1,1,none,none,-1,-1,-1,46747,50681,15:02:45.298788,hand
3,10,hand1,1,gabor,0,0.018278902818462617,3,3,-1,4,0.6124224761624646,-1,1,-1,incongruent,hit,q,1,2.201364411859686,49748,50681,15:02:45.298788,hand
3,11,hand1,1,cue,yellow,-1,-1,-1,4,4,-1,0.6412217345905447,-1,1,none,none,-1,-1,-1,55998,50681,15:02:45.298788,hand
3,12,hand1,1,gabor,90,0.018278902818462617,4,4,-1,4,0.4478597833731328,-1,1,-1,congruent,CR,c,4,1.806820446517122,59181,50681,15:02:45.298788,hand
3,13,hand1,1,cue,yellow,-1,-1,-1,4,4,-1,0.6626294687921472,-1,1,none,none,-1,-1,-1,64763,50681,15:02:45.298788,hand
3,14,hand1,1,cue,blue,-1,-1,-1,3,3,-1,0.20746110416303054,-1,1,none,none,-1,-1,-1,67764,50681,15:02:45.298788,hand
3,15,hand1,1,cue,yellow,-1,-1,-1,4,4,-1,0.33425824984942665,-1,1,none,none,-1,-1,-1,70515,50681,15:02:45.298788,hand
3,16,hand1,1,cue,blue,-1,-1,-1,3,3,-1,0.26923480118102816,-1,1,none,none,-1,-1,-1,73180,50681,15:02:45.298788,hand
3,17,hand1,1,cue,yellow,-1,-1,-1,4,4,-1,0.1836891113157435,-1,1,none,none,-1,-1,-1,81546,50681,15:02:45.298788,hand
3,18,hand1,1,cue,yellow,-1,-1,-1,4,4,-1,0.18553651237834856,-1,1,none,none,-1,-1,-1,84264,50681,15:02:45.298788,hand
3,19,hand1,1,cue,yellow,-1,-1,-1,4,4,-1,0.16539711442919725,-1,1,none,none,-1,-1,-1,86981,50681,15:02:45.298788,hand
3,20,hand1,1,gabor,90,0.018278902818462617,4,4,-1,3,0.5771720978314079,-1,1,-1,incongruent,CR,4,4,2.2182221865532483,89681,50681,15:02:45.298788,hand
3,21,hand1,1,gabor,0,0.018278902818462617,3,3,-1,3,0.6347579428452264,-1,1,-1,congruent,hit,3,2,2.044792275859436,95712,50681,15:02:45.298788,hand
3,22,hand1,1,cue,yellow,-1,-1,-1,3,4,-1,0.7325646004778719,-1,0,none,none,-1,-1,-1,101713,50681,15:02:45.298788,hand
3,23,hand1,1,cue,blue,-1,-1,-1,3,3,-1,0.42334936769429987,-1,1,none,none,-1,-1,-1,107612,50681,15:02:45.298788,hand
3,24,hand1,1,cue,yellow,-1,-1,-1,4,4,-1,0.28880358221476854,-1,1,none,none,-1,-1,-1,114245,50681,15:02:45.298788,hand
3,25,hand1,1,cue,yellow,-1,-1,-1,4,4,-1,0.23864305300776323,-1,1,none,none,-1,-1,-1,116878,50681,15:02:45.298788,hand
3,26,hand1,1,cue,yellow,-1,-1,-1,4,4,-1,0.24150458547910603,-1,1,none,none,-1,-1,-1,119664,50681,15:02:45.298788,hand
3,27,hand1,1,cue,blue,-1,-1,-1,3,3,-1,0.1742931319768104,-1,1,none,none,-1,-1,-1,122346,50681,15:02:45.298788,hand
3,28,hand1,1,gabor,0,0.018278902818462617,3,3,-1,4,0.6901438791733199,-1,1,-1,incongruent,hit,4,3,1.5931685712189392,125063,50681,15:02:45.298788,hand
3,29,hand1,1,cue,blue,-1,-1,-1,3,3,-1,0.25769344047785125,-1,1,none,none,-1,-1,-1,133411,50681,15:02:45.298788,hand
3,30,hand1,1,cue,blue,-1,-1,-1,3,3,-1,0.214602263497909,-1,1,none,none,-1,-1,-1,136212,50681,15:02:45.298788,hand
3,31,hand1,1,gabor,0,0.018278902818462617,3,3,-1,3,0.5241792197907671,-1,1,-1,congruent,hit,q,3,1.6633306440867273,138762,50681,15:02:45.298788,hand
3,32,hand1,1,cue,blue,-1,-1,-1,3,3,-1,0.17777443275235782,-1,1,none,none,-1,-1,-1,149844,50681,15:02:45.298788,hand
3,33,hand1,1,gabor,0,0.018278902818462617,3,3,-1,4,0.7015996089394321,-1,1,-1,incongruent,hit,q,2,1.3245151388196064,152460,50681,15:02:45.298788,hand
3,34,hand1,1,cue,yellow,-1,-1,-1,3,4,-1,0.40633991488357424,-1,0,none,none,-1,-1,-1,157727,50681,15:02:45.298788,hand
3,35,hand1,1,cue,blue,-1,-1,-1,3,3,-1,0.4813307277977401,-1,1,none,none,-1,-1,-1,160678,50681,15:02:45.298788,hand
3,36,hand1,1,cue,blue,-1,-1,-1,3,3,-1,0.23390263186502125,-1,1,none,none,-1,-1,-1,163594,50681,15:02:45.298788,hand
3,37,hand1,2,cue,blue,-1,-1,-1,3,3,-1,0.34367995686943686,-1,1,none,none,-1,-1,-1,184560,50681,15:02:45.298788,hand
3,38,hand1,2,cue,yellow,-1,-1,-1,4,4,-1,0.39742930551756217,-1,1,none,none,-1,-1,-1,191076,50681,15:02:45.298788,hand
3,39,hand1,2,cue,yellow,-1,-1,-1,4,4,-1,0.23316651300456215,-1,1,none,none,-1,-1,-1,193809,50681,15:02:45.298788,hand
3,40,hand1,2,cue,blue,-1,-1,-1,3,3,-1,0.19216043013602757,-1,1,none,none,-1,-1,-1,196376,50681,15:02:45.298788,hand
3,41,hand1,2,cue,blue,-1,-1,-1,3,3,-1,0.18989562625574763,-1,1,none,none,-1,-1,-1,201725,50681,15:02:45.298788,hand
3,42,hand1,2,cue,blue,-1,-1,-1,4,3,-1,0.4564324769344239,-1,0,none,none,-1,-1,-1,208109,50681,15:02:45.298788,hand
3,43,hand1,2,cue,yellow,-1,-1,-1,4,4,-1,0.1512203944475914,-1,1,none,none,-1,-1,-1,210892,50681,15:02:45.298788,hand
3,44,hand1,2,gabor,90,0.018278902818462617,4,4,-1,3,0.5061690754050687,-1,1,-1,incongruent,CR,c,3,1.8180565310103702,213375,50681,15:02:45.298788,hand
3,45,hand1,2,cue,yellow,-1,-1,-1,4,4,-1,0.5298431494675242,-1,1,none,none,-1,-1,-1,219143,50681,15:02:45.298788,hand
3,46,hand1,2,gabor,90,0.018278902818462617,4,4,-1,4,0.511397170492728,-1,1,-1,congruent,CR,q,2,1.472602900162201,222209,50681,15:02:45.298788,hand
3,47,hand1,2,gabor,90,0.018278902818462617,4,4,-1,3,0.4330951666902365,-1,1,-1,incongruent,CR,c,4,1.466186723826013,227425,50681,15:02:45.298788,hand
3,48,hand1,2,cue,yellow,-1,-1,-1,4,4,-1,0.20194731662240883,-1,1,none,none,-1,-1,-1,235608,50681,15:02:45.298788,hand
3,49,hand1,2,gabor,0,0.018278902818462617,4,3,-1,4,0.2796284001337881,-1,0,-1,congruent,miss,4,2,1.6516959725427114,238141,50681,15:02:45.298788,hand
3,50,hand1,2,cue,blue,-1,-1,-1,3,3,-1,0.23442294540473085,-1,1,none,none,-1,-1,-1,243308,50681,15:02:45.298788,hand
3,51,hand1,2,cue,blue,-1,-1,-1,3,3,-1,0.17432039563800572,-1,1,none,none,-1,-1,-1,245974,50681,15:02:45.298788,hand
3,52,hand1,2,gabor,90,0.018278902818462617,4,4,-1,4,0.41119361462006054,-1,1,-1,congruent,CR,q,3,8.03096153558181,248574,50681,15:02:45.298788,hand
3,53,hand1,2,cue,yellow,-1,-1,-1,3,4,-1,0.5764421228946048,-1,0,none,none,-1,-1,-1,260358,50681,15:02:45.298788,hand
3,54,hand1,2,cue,yellow,-1,-1,-1,4,4,-1,0.3312868947418792,-1,1,none,none,-1,-1,-1,263257,50681,15:02:45.298788,hand
3,55,hand1,2,gabor,0,0.018278902818462617,3,3,-1,3,0.6631340385279145,-1,1,-1,congruent,hit,4,3,1.9250287708423457,266024,50681,15:02:45.298788,hand
3,56,hand1,2,cue,blue,-1,-1,-1,3,3,-1,0.24168506323849215,-1,1,none,none,-1,-1,-1,274873,50681,15:02:45.298788,hand
3,57,hand1,2,gabor,90,0.018278902818462617,4,4,-1,4,0.47049630231776973,-1,1,-1,congruent,CR,c,2,2.754377065654353,277441,50681,15:02:45.298788,hand
3,58,hand1,2,cue,yellow,-1,-1,-1,4,4,-1,0.5183236764933099,-1,1,none,none,-1,-1,-1,284007,50681,15:02:45.298788,hand
3,59,hand1,2,cue,yellow,-1,-1,-1,4,4,-1,0.21089286955429998,-1,1,none,none,-1,-1,-1,286956,50681,15:02:45.298788,hand
3,60,hand1,2,gabor,0,0.018278902818462617,3,3,-1,4,0.47377408562078926,-1,1,-1,incongruent,hit,q,3,2.9687078445235784,289489,50681,15:02:45.298788,hand
3,61,hand1,2,cue,yellow,-1,-1,-1,3,4,-1,0.5443808249674476,-1,0,none,none,-1,-1,-1,296173,50681,15:02:45.298788,hand
3,62,hand1,2,gabor,0,0.018278902818462617,4,3,-1,4,0.6512286503452742,-1,0,-1,congruent,miss,4,2,1.7342192359337787,299056,50681,15:02:45.298788,hand
3,63,hand1,2,gabor,0,0.018278902818462617,3,3,-1,3,0.6686436021209374,-1,1,-1,congruent,hit,3,3,2.6336562605238214,307522,50681,15:02:45.298788,hand
3,64,hand1,2,cue,yellow,-1,-1,-1,3,4,-1,0.18040748806060947,-1,0,none,none,-1,-1,-1,314273,50681,15:02:45.298788,hand
3,65,hand1,2,cue,blue,-1,-1,-1,3,3,-1,0.1711171074102822,-1,1,none,none,-1,-1,-1,319722,50681,15:02:45.298788,hand
3,66,hand1,2,cue,blue,-1,-1,-1,3,3,-1,0.7757417923899084,-1,1,none,none,-1,-1,-1,325888,50681,15:02:45.298788,hand
3,67,hand1,2,gabor,0,0.018278902818462617,4,3,-1,3,0.5504859651659899,-1,0,-1,incongruent,miss,q,1,1.9704039514645046,329190,50681,15:02:45.298788,hand
3,68,hand1,2,cue,blue,-1,-1,-1,3,3,-1,0.3582556478982042,-1,1,none,none,-1,-1,-1,334955,50681,15:02:45.298788,hand
3,69,hand1,2,cue,yellow,-1,-1,-1,4,4,-1,0.7209533526433916,-1,1,none,none,-1,-1,-1,337839,50681,15:02:45.298788,hand
3,70,hand1,2,cue,blue,-1,-1,-1,4,3,-1,0.4717711664889066,-1,0,none,none,-1,-1,-1,343921,50681,15:02:45.298788,hand
3,71,hand1,2,gabor,90,0.018278902818462617,4,4,-1,3,0.5294322745689897,-1,1,-1,incongruent,CR,q,2,1.7024497743836946,346721,50681,15:02:45.298788,hand
3,72,hand1,2,cue,blue,-1,-1,-1,3,3,-1,0.2111551382977268,-1,1,none,none,-1,-1,-1,352405,50681,15:02:45.298788,hand
3,73,hand1,3,gabor,0,0.018278902818462617,3,3,-1,4,0.604220338000232,-1,1,-1,incongruent,hit,4,4,2.684115538021615,387454,50681,15:02:45.298788,hand
3,74,hand1,3,cue,yellow,-1,-1,-1,4,4,-1,0.3428432312584846,-1,1,none,none,-1,-1,-1,394102,50681,15:02:45.298788,hand
3,75,hand1,3,gabor,90,0.018278902818462617,4,4,-1,3,0.5165926259860498,-1,1,-1,incongruent,CR,c,3,2.3705807428691514,396869,50681,15:02:45.298788,hand
3,76,hand1,3,cue,blue,-1,-1,-1,3,3,-1,0.23718694308718113,-1,1,none,none,-1,-1,-1,406035,50681,15:02:45.298788,hand
3,77,hand1,3,cue,blue,-1,-1,-1,3,3,-1,0.14972204505102127,-1,1,none,none,-1,-1,-1,411535,50681,15:02:45.298788,hand
3,78,hand1,3,gabor,90,0.018278902818462617,4,4,-1,4,0.3036419259815375,-1,1,-1,congruent,CR,c,4,2.42265472031886,414219,50681,15:02:45.298788,hand
3,79,hand1,3,gabor,90,0.018278902818462617,3,4,-1,3,0.27335468602814217,-1,0,-1,congruent,FA,4,3,1.8983510860730348,420186,50681,15:02:45.298788,hand
3,80,hand1,3,gabor,0,0.018278902818462617,3,3,-1,3,0.5927534723728058,-1,1,-1,congruent,hit,q,3,1.564725276371064,429368,50681,15:02:45.298788,hand
3,81,hand1,3,cue,yellow,-1,-1,-1,4,4,-1,0.21535911810133257,-1,1,none,none,-1,-1,-1,437601,50681,15:02:45.298788,hand
3,82,hand1,3,cue,yellow,-1,-1,-1,4,4,-1,0.2272211148228962,-1,1,none,none,-1,-1,-1,440352,50681,15:02:45.298788,hand
3,83,hand1,3,cue,blue,-1,-1,-1,3,3,-1,0.38884470810444327,-1,1,none,none,-1,-1,-1,446567,50681,15:02:45.298788,hand
3,84,hand1,3,cue,yellow,-1,-1,-1,4,4,-1,0.22176646254729349,-1,1,none,none,-1,-1,-1,449284,50681,15:02:45.298788,hand
3,85,hand1,3,cue,blue,-1,-1,-1,3,3,-1,0.6121820951470909,-1,1,none,none,-1,-1,-1,458434,50681,15:02:45.298788,hand
3,86,hand1,3,cue,yellow,-1,-1,-1,4,4,-1,0.15083217526762382,-1,1,none,none,-1,-1,-1,461585,50681,15:02:45.298788,hand
3,87,hand1,3,cue,blue,-1,-1,-1,3,3,-1,0.2338481045417211,-1,1,none,none,-1,-1,-1,464067,50681,15:02:45.298788,hand
3,88,hand1,3,cue,yellow,-1,-1,-1,4,4,-1,0.18268688375974307,-1,1,none,none,-1,-1,-1,466633,50681,15:02:45.298788,hand
3,89,hand1,3,gabor,0,0.018278902818462617,3,3,-1,4,0.6813630601964178,-1,1,-1,incongruent,hit,3,1,2.00240496214019,469352,50681,15:02:45.298788,hand
3,90,hand1,3,cue,yellow,-1,-1,-1,4,4,-1,0.3282310606828105,-1,1,none,none,-1,-1,-1,475267,50681,15:02:45.298788,hand
3,91,hand1,3,cue,yellow,-1,-1,-1,4,4,-1,0.4949644785210694,-1,1,none,none,-1,-1,-1,477934,50681,15:02:45.298788,hand
3,92,hand1,3,cue,blue,-1,-1,-1,3,3,-1,0.20473972995159784,-1,1,none,none,-1,-1,-1,483799,50681,15:02:45.298788,hand
3,93,hand1,3,gabor,0,0.018278902818462617,3,3,-1,3,0.6645486769634772,-1,1,-1,congruent,hit,4,2,1.5804460411818582,486434,50681,15:02:45.298788,hand
3,94,hand1,3,cue,blue,-1,-1,-1,3,3,-1,0.714288731391207,-1,1,none,none,-1,-1,-1,492117,50681,15:02:45.298788,hand
3,95,hand1,3,cue,blue,-1,-1,-1,3,3,-1,0.1851390773131243,-1,1,none,none,-1,-1,-1,495166,50681,15:02:45.298788,hand
3,96,hand1,3,gabor,90,0.018278902818462617,4,4,-1,4,0.410597270024482,-1,1,-1,congruent,CR,4,3,3.8736287050260216,501549,50681,15:02:45.298788,hand
3,97,hand1,3,cue,yellow,-1,-1,-1,3,4,-1,0.22432771074727498,-1,0,none,none,-1,-1,-1,509066,50681,15:02:45.298788,hand
3,98,hand1,3,cue,blue,-1,-1,-1,4,3,-1,0.41223040174736525,-1,0,none,none,-1,-1,-1,511716,50681,15:02:45.298788,hand
3,99,hand1,3,cue,blue,-1,-1,-1,3,3,-1,0.22675494461054768,-1,1,none,none,-1,-1,-1,517398,50681,15:02:45.298788,hand
3,100,hand1,3,cue,yellow,-1,-1,-1,4,4,-1,0.22064250850280587,-1,1,none,none,-1,-1,-1,519948,50681,15:02:45.298788,hand
3,101,hand1,3,gabor,90,0.018278902818462617,4,4,-1,4,0.3414585444511431,-1,1,-1,congruent,CR,3,2,2.3714124765429005,522499,50681,15:02:45.298788,hand
3,102,hand1,3,cue,blue,-1,-1,-1,4,3,-1,0.39821918371080756,-1,0,none,none,-1,-1,-1,528633,50681,15:02:45.298788,hand
3,103,hand1,3,gabor,0,0.018278902818462617,4,3,-1,3,0.6349583883566083,-1,0,-1,incongruent,miss,3,4,1.5229058916002032,531365,50681,15:02:45.298788,hand
3,104,hand1,3,cue,blue,-1,-1,-1,3,3,-1,0.48213366182881146,-1,1,none,none,-1,-1,-1,543465,50681,15:02:45.298788,hand
3,105,hand1,3,gabor,90,0.018278902818462617,4,4,-1,3,0.4880844359436196,-1,1,-1,incongruent,CR,3,3,1.8689766027864607,546281,50681,15:02:45.298788,hand
3,106,hand1,3,cue,yellow,-1,-1,-1,4,4,-1,0.6098846516720187,-1,1,none,none,-1,-1,-1,551881,50681,15:02:45.298788,hand
3,107,hand1,3,gabor,0,0.018278902818462617,3,3,-1,4,0.5636635295536507,-1,1,-1,incongruent,hit,3,4,1.7775530979006362,555015,50681,15:02:45.298788,hand
3,108,hand1,3,cue,yellow,-1,-1,-1,4,4,-1,0.23828209748944573,-1,1,none,none,-1,-1,-1,560782,50681,15:02:45.298788,hand
3,109,hand1,4,cue,yellow,-1,-1,-1,4,4,-1,0.2176108661433318,-1,1,none,none,-1,-1,-1,608096,50681,15:02:45.298788,hand
3,110,hand1,4,gabor,90,0.018278902818462617,4,4,-1,3,0.5543946526358923,-1,1,-1,incongruent,CR,4,3,2.3903699371667244,610879,50681,15:02:45.298788,hand
3,111,hand1,4,cue,blue,-1,-1,-1,3,3,-1,0.21917103877240152,-1,1,none,none,-1,-1,-1,617063,50681,15:02:45.298788,hand
3,112,hand1,4,gabor,90,0.018278902818462617,4,4,-1,4,0.43086607436680424,-1,1,-1,congruent,CR,c,4,1.6856979823737674,622645,50681,15:02:45.298788,hand
3,113,hand1,4,cue,yellow,-1,-1,-1,4,4,-1,0.3224073889896317,-1,1,none,none,-1,-1,-1,628214,50681,15:02:45.298788,hand
3,114,hand1,4,gabor,0,0.018278902818462617,3,3,-1,4,0.7081705353543839,-1,1,-1,incongruent,hit,q,3,2.0752599935722174,631063,50681,15:02:45.298788,hand
3,115,hand1,4,cue,blue,-1,-1,-1,3,3,-1,0.7259660264057857,-1,1,none,none,-1,-1,-1,637178,50681,15:02:45.298788,hand
3,116,hand1,4,cue,yellow,-1,-1,-1,4,4,-1,0.2007845790585634,-1,1,none,none,-1,-1,-1,640429,50681,15:02:45.298788,hand
3,117,hand1,4,cue,blue,-1,-1,-1,3,3,-1,0.267464967154865,-1,1,none,none,-1,-1,-1,643162,50681,15:02:45.298788,hand
3,118,hand1,4,cue,blue,-1,-1,-1,3,3,-1,0.5375311180137032,-1,1,none,none,-1,-1,-1,645762,50681,15:02:45.298788,hand
3,119,hand1,4,cue,blue,-1,-1,-1,3,3,-1,0.18423822449813088,-1,1,none,none,-1,-1,-1,648628,50681,15:02:45.298788,hand
3,120,hand1,4,cue,blue,-1,-1,-1,3,3,-1,0.17224720537842586,-1,1,none,none,-1,-1,-1,651145,50681,15:02:45.298788,hand
3,121,hand1,4,gabor,0,0.018278902818462617,4,3,-1,4,0.7708147495641242,-1,0,-1,congruent,miss,4,2,2.114762351110585,656477,50681,15:02:45.298788,hand
3,122,hand1,4,cue,yellow,-1,-1,-1,4,4,-1,0.2484495232511108,-1,1,none,none,-1,-1,-1,662611,50681,15:02:45.298788,hand
3,123,hand1,4,gabor,90,0.018278902818462617,4,4,-1,4,0.6683218141165526,-1,1,-1,congruent,CR,3,3,1.8002913755822192,665194,50681,15:02:45.298788,hand
3,124,hand1,4,gabor,90,0.018278902818462617,4,4,-1,3,0.0657023522394411,-1,1,-1,incongruent,CR,4,3,1.3915941139675851,676676,50681,15:02:45.298788,hand
3,125,hand1,4,cue,yellow,-1,-1,-1,4,4,-1,0.22438300606063422,-1,1,none,none,-1,-1,-1,681578,50681,15:02:45.298788,hand
3,126,hand1,4,cue,blue,-1,-1,-1,3,3,-1,0.20622387152434385,-1,1,none,none,-1,-1,-1,684227,50681,15:02:45.298788,hand
3,127,hand1,4,gabor,90,0.018278902818462617,4,4,-1,3,0.3940920029535846,-1,1,-1,incongruent,CR,q,2,1.3859451601047112,686860,50681,15:02:45.298788,hand
3,128,hand1,4,cue,yellow,-1,-1,-1,4,4,-1,0.24038600736730587,-1,1,none,none,-1,-1,-1,699310,50681,15:02:45.298788,hand
3,129,hand1,4,cue,blue,-1,-1,-1,3,3,-1,0.23028616476722163,-1,1,none,none,-1,-1,-1,701976,50681,15:02:45.298788,hand
3,130,hand1,4,cue,blue,-1,-1,-1,3,3,-1,0.2351690481409605,-1,1,none,none,-1,-1,-1,704744,50681,15:02:45.298788,hand
3,131,hand1,4,cue,blue,-1,-1,-1,3,3,-1,0.16478272205768008,-1,1,none,none,-1,-1,-1,710242,50681,15:02:45.298788,hand
3,132,hand1,4,cue,blue,-1,-1,-1,3,3,-1,0.2035954241591753,-1,1,none,none,-1,-1,-1,712943,50681,15:02:45.298788,hand
3,133,hand1,4,gabor,0,0.018278902818462617,4,3,-1,3,0.5822316190124184,-1,0,-1,incongruent,miss,c,4,2.1941595093157957,715476,50681,15:02:45.298788,hand
3,134,hand1,4,cue,yellow,-1,-1,-1,4,4,-1,0.4031646583075599,-1,1,none,none,-1,-1,-1,721676,50681,15:02:45.298788,hand
3,135,hand1,4,cue,yellow,-1,-1,-1,4,4,-1,0.17495629174254645,-1,1,none,none,-1,-1,-1,724610,50681,15:02:45.298788,hand
3,136,hand1,4,gabor,90,0.018278902818462617,4,4,-1,4,0.4336876713341553,-1,1,-1,congruent,CR,q,4,1.8266960397418188,727208,50681,15:02:45.298788,hand
3,137,hand1,4,gabor,0,0.018278902818462617,4,3,-1,3,0.45936159256643805,-1,0,-1,incongruent,miss,q,1,3.0623485378805526,732910,50681,15:02:45.298788,hand
3,138,hand1,4,cue,yellow,-1,-1,-1,3,4,-1,0.6361407096769653,-1,0,none,none,-1,-1,-1,739859,50681,15:02:45.298788,hand
3,139,hand1,4,cue,yellow,-1,-1,-1,4,4,-1,0.21875555593078388,-1,1,none,none,-1,-1,-1,745657,50681,15:02:45.298788,hand
3,140,hand1,4,cue,blue,-1,-1,-1,3,3,-1,0.1875862789288476,-1,1,none,none,-1,-1,-1,748207,50681,15:02:45.298788,hand
3,141,hand1,4,gabor,0,0.018278902818462617,3,3,-1,4,0.6852083884527929,-1,1,-1,incongruent,hit,3,3,2.928401784963171,750825,50681,15:02:45.298788,hand
3,142,hand1,4,cue,yellow,-1,-1,-1,4,4,-1,0.23363997912611012,-1,1,none,none,-1,-1,-1,764373,50681,15:02:45.298788,hand
3,143,hand1,4,gabor,0,0.018278902818462617,4,3,-1,3,0.44646396070356786,-1,0,-1,incongruent,miss,c,1,2.0744182760226977,767041,50681,15:02:45.298788,hand
3,144,hand1,4,cue,yellow,-1,-1,-1,4,4,-1,0.4722588404342787,-1,1,none,none,-1,-1,-1,772808,50681,15:02:45.298788,hand
3,145,hand1,5,cue,yellow,-1,-1,-1,4,4,-1,0.18226832895607004,-1,1,none,none,-1,-1,-1,806706,50681,15:02:45.298788,hand
3,146,hand1,5,cue,yellow,-1,-1,-1,4,4,-1,0.21417142084783336,-1,1,none,none,-1,-1,-1,809422,50681,15:02:45.298788,hand
3,147,hand1,5,gabor,90,0.018278902818462617,4,4,-1,3,0.3867953255494285,-1,1,-1,incongruent,CR,q,1,1.4156191596721328,814805,50681,15:02:45.298788,hand
3,148,hand1,5,cue,yellow,-1,-1,-1,4,4,-1,0.5084119915563861,-1,1,none,none,-1,-1,-1,820057,50681,15:02:45.298788,hand
3,149,hand1,5,cue,blue,-1,-1,-1,3,3,-1,0.18231172041760146,-1,1,none,none,-1,-1,-1,822989,50681,15:02:45.298788,hand
3,150,hand1,5,cue,yellow,-1,-1,-1,4,4,-1,0.17121195423214886,-1,1,none,none,-1,-1,-1,825707,50681,15:02:45.298788,hand
3,151,hand1,5,gabor,0,0.018278902818462617,4,3,-1,3,0.24897521272350787,-1,0,-1,incongruent,miss,q,3,4.445858784217307,828406,50681,15:02:45.298788,hand
3,152,hand1,5,gabor,90,0.018278902818462617,4,4,-1,4,0.7341577966967634,-1,1,-1,congruent,CR,4,3,1.901302857423616,840105,50681,15:02:45.298788,hand
3,153,hand1,5,cue,yellow,-1,-1,-1,4,4,-1,0.26289926384288265,-1,1,none,none,-1,-1,-1,845988,50681,15:02:45.298788,hand
3,154,hand1,5,gabor,0,0.018278902818462617,3,3,-1,3,0.6847349223312449,-1,1,-1,congruent,hit,q,4,1.7976717601072778,848588,50681,15:02:45.298788,hand
3,155,hand1,5,gabor,90,0.018278902818462617,4,4,-1,4,0.5613641661025213,-1,1,-1,congruent,CR,q,3,2.0332935386277313,854422,50681,15:02:45.298788,hand
3,156,hand1,5,cue,yellow,-1,-1,-1,4,4,-1,0.18278941048674824,-1,1,none,none,-1,-1,-1,866954,50681,15:02:45.298788,hand
3,157,hand1,5,cue,blue,-1,-1,-1,3,3,-1,0.19866415738579235,-1,1,none,none,-1,-1,-1,869671,50681,15:02:45.298788,hand
3,158,hand1,5,gabor,0,0.018278902818462617,3,3,-1,3,0.6815078263985015,-1,1,-1,congruent,hit,c,4,1.5704552532279195,872304,50681,15:02:45.298788,hand
3,159,hand1,5,cue,blue,-1,-1,-1,3,3,-1,0.3202535597320093,-1,1,none,none,-1,-1,-1,877787,50681,15:02:45.298788,hand
3,160,hand1,5,cue,blue,-1,-1,-1,3,3,-1,0.20007149991215556,-1,1,none,none,-1,-1,-1,880537,50681,15:02:45.298788,hand
3,161,hand1,5,cue,blue,-1,-1,-1,3,3,-1,0.23479234881824596,-1,1,none,none,-1,-1,-1,883170,50681,15:02:45.298788,hand
3,162,hand1,5,cue,yellow,-1,-1,-1,4,4,-1,0.1957312018016637,-1,1,none,none,-1,-1,-1,885736,50681,15:02:45.298788,hand
3,163,hand1,5,cue,yellow,-1,-1,-1,4,4,-1,0.20449474099314102,-1,1,none,none,-1,-1,-1,892038,50681,15:02:45.298788,hand
3,164,hand1,5,cue,yellow,-1,-1,-1,4,4,-1,0.14425472093353164,-1,1,none,none,-1,-1,-1,894771,50681,15:02:45.298788,hand
3,165,hand1,5,cue,blue,-1,-1,-1,3,3,-1,0.18122616589562313,-1,1,none,none,-1,-1,-1,897454,50681,15:02:45.298788,hand
3,166,hand1,5,cue,blue,-1,-1,-1,3,3,-1,0.1447642826065021,-1,1,none,none,-1,-1,-1,902802,50681,15:02:45.298788,hand
3,167,hand1,5,cue,blue,-1,-1,-1,3,3,-1,0.2406375242444483,-1,1,none,none,-1,-1,-1,905269,50681,15:02:45.298788,hand
3,168,hand1,5,gabor,90,0.018278902818462617,4,4,-1,4,0.2463978367245545,-1,1,-1,congruent,CR,3,3,1.7763342970333724,907937,50681,15:02:45.298788,hand
3,169,hand1,5,gabor,0,0.018278902818462617,4,3,-1,4,0.07316683556064163,-1,0,-1,congruent,miss,c,3,4.0320824176646965,913387,50681,15:02:45.298788,hand
3,170,hand1,5,cue,blue,-1,-1,-1,3,3,-1,0.5645436466261344,-1,1,none,none,-1,-1,-1,923669,50681,15:02:45.298788,hand
3,171,hand1,5,cue,yellow,-1,-1,-1,4,4,-1,0.16744572899369814,-1,1,none,none,-1,-1,-1,926669,50681,15:02:45.298788,hand
3,172,hand1,5,cue,yellow,-1,-1,-1,4,4,-1,0.19626265120268727,-1,1,none,none,-1,-1,-1,929269,50681,15:02:45.298788,hand
3,173,hand1,5,gabor,90,0.018278902818462617,4,4,-1,3,0.3590532059956786,-1,1,-1,incongruent,CR,c,3,4.2610280550757125,932004,50681,15:02:45.298788,hand
3,174,hand1,5,cue,blue,-1,-1,-1,3,3,-1,0.4937011342067308,-1,1,none,none,-1,-1,-1,939951,50681,15:02:45.298788,hand
3,175,hand1,5,gabor,0,0.018278902818462617,3,3,-1,4,0.6333386964665806,-1,1,-1,incongruent,hit,c,4,2.972364631120854,942769,50681,15:02:45.298788,hand
3,176,hand1,5,gabor,0,0.018278902818462617,3,3,-1,4,0.4861563958820625,-1,1,-1,incongruent,hit,4,2,2.865003788112972,949802,50681,15:02:45.298788,hand
3,177,hand1,5,cue,yellow,-1,-1,-1,4,4,-1,0.654693823321395,-1,1,none,none,-1,-1,-1,956501,50681,15:02:45.298788,hand
3,178,hand1,5,gabor,90,0.018278902818462617,4,4,-1,3,0.5615830433848714,-1,1,-1,incongruent,CR,q,4,1.5784258422650055,959485,50681,15:02:45.298788,hand
3,179,hand1,5,cue,blue,-1,-1,-1,3,3,-1,0.5712620272106506,-1,1,none,none,-1,-1,-1,964951,50681,15:02:45.298788,hand
3,180,hand1,5,cue,blue,-1,-1,-1,3,3,-1,0.20309623035700497,-1,1,none,none,-1,-1,-1,967851,50681,15:02:45.298788,hand
3,181,hand1,6,cue,blue,-1,-1,-1,3,3,-1,0.4776823890952073,-1,1,none,none,-1,-1,-1,992266,50681,15:02:45.298788,hand
3,182,hand1,6,cue,yellow,-1,-1,-1,4,4,-1,0.30929663977258315,-1,1,none,none,-1,-1,-1,998800,50681,15:02:45.298788,hand
3,183,hand1,6,gabor,90,0.018278902818462617,3,4,-1,3,0.47211407423174023,-1,0,-1,congruent,FA,4,1,2.0340377213879037,1001433,50681,15:02:45.298788,hand
3,184,hand1,6,gabor,0,0.018278902818462617,3,3,-1,4,0.5567758070715172,-1,1,-1,incongruent,hit,3,3,1.5266536850676857,1007384,50681,15:02:45.298788,hand
3,185,hand1,6,cue,blue,-1,-1,-1,3,3,-1,0.5624101691155374,-1,1,none,none,-1,-1,-1,1012901,50681,15:02:45.298788,hand
3,186,hand1,6,cue,blue,-1,-1,-1,3,3,-1,0.22125037295563743,-1,1,none,none,-1,-1,-1,1016001,50681,15:02:45.298788,hand
3,187,hand1,6,gabor,90,0.018278902818462617,4,4,-1,4,0.45914501925562945,-1,1,-1,congruent,CR,c,4,1.9580496728553953,1018750,50681,15:02:45.298788,hand
3,188,hand1,6,cue,yellow,-1,-1,-1,4,4,-1,0.2068098482491223,-1,1,none,none,-1,-1,-1,1024499,50681,15:02:45.298788,hand
3,189,hand1,6,gabor,90,0.018278902818462617,4,4,-1,3,0.6536551162180331,-1,1,-1,incongruent,CR,3,3,2.3425525468678643,1027233,50681,15:02:45.298788,hand
3,190,hand1,6,cue,yellow,-1,-1,-1,4,4,-1,0.44223847716693854,-1,1,none,none,-1,-1,-1,1033465,50681,15:02:45.298788,hand
3,191,hand1,6,gabor,90,0.018278902818462617,3,4,-1,3,0.4201107519047582,-1,0,-1,congruent,FA,3,2,5.565975564847577,1036332,50681,15:02:45.298788,hand
3,192,hand1,6,cue,yellow,-1,-1,-1,4,4,-1,0.21659404676802296,-1,1,none,none,-1,-1,-1,1045664,50681,15:02:45.298788,hand
3,193,hand1,6,cue,blue,-1,-1,-1,3,3,-1,0.25855166982228184,-1,1,none,none,-1,-1,-1,1048215,50681,15:02:45.298788,hand
3,194,hand1,6,cue,yellow,-1,-1,-1,4,4,-1,0.2032820840495333,-1,1,none,none,-1,-1,-1,1050798,50681,15:02:45.298788,hand
3,195,hand1,6,cue,blue,-1,-1,-1,3,3,-1,0.24223686438699588,-1,1,none,none,-1,-1,-1,1053332,50681,15:02:45.298788,hand
3,196,hand1,6,cue,yellow,-1,-1,-1,4,4,-1,0.17601151064127407,-1,1,none,none,-1,-1,-1,1055998,50681,15:02:45.298788,hand
3,197,hand1,6,cue,yellow,-1,-1,-1,4,4,-1,0.21993058134194143,-1,1,none,none,-1,-1,-1,1058498,50681,15:02:45.298788,hand
3,198,hand1,6,cue,yellow,-1,-1,-1,4,4,-1,0.22969558009936009,-1,1,none,none,-1,-1,-1,1061047,50681,15:02:45.298788,hand
3,199,hand1,6,cue,blue,-1,-1,-1,3,3,-1,0.21540980547206345,-1,1,none,none,-1,-1,-1,1063816,50681,15:02:45.298788,hand
3,200,hand1,6,gabor,0,0.018278902818462617,3,3,-1,3,0.6443178881490894,-1,1,-1,congruent,hit,q,3,1.7262129353402997,1066365,50681,15:02:45.298788,hand
3,201,hand1,6,cue,yellow,-1,-1,-1,3,4,-1,0.7491251628616737,-1,0,none,none,-1,-1,-1,1072182,50681,15:02:45.298788,hand
3,202,hand1,6,gabor,0,0.018278902818462617,3,3,-1,3,0.5288055943497056,-1,1,-1,congruent,hit,4,2,2.0757438275645654,1075364,50681,15:02:45.298788,hand
3,203,hand1,6,cue,yellow,-1,-1,-1,4,4,-1,0.20846448370502912,-1,1,none,none,-1,-1,-1,1081416,50681,15:02:45.298788,hand
3,204,hand1,6,gabor,90,0.018278902818462617,4,4,-1,4,0.6301914715427301,-1,1,-1,congruent,CR,q,3,4.209998544657992,1087714,50681,15:02:45.298788,hand
3,205,hand1,6,cue,blue,-1,-1,-1,4,3,-1,0.23960227309817128,-1,0,none,none,-1,-1,-1,1095796,50681,15:02:45.298788,hand
3,206,hand1,6,cue,blue,-1,-1,-1,3,3,-1,0.19455502440496275,-1,1,none,none,-1,-1,-1,1098364,50681,15:02:45.298788,hand
3,207,hand1,6,cue,blue,-1,-1,-1,3,3,-1,0.2283243331248741,-1,1,none,none,-1,-1,-1,1101081,50681,15:02:45.298788,hand
3,208,hand1,6,cue,blue,-1,-1,-1,3,3,-1,0.1900699600914777,-1,1,none,none,-1,-1,-1,1103747,50681,15:02:45.298788,hand
3,209,hand1,6,gabor,90,0.018278902818462617,4,4,-1,4,0.3210756935241079,-1,1,-1,congruent,CR,c,3,4.125038447522911,1106363,50681,15:02:45.298788,hand
3,210,hand1,6,cue,yellow,-1,-1,-1,4,4,-1,0.20270647519646445,-1,1,none,none,-1,-1,-1,1114146,50681,15:02:45.298788,hand
3,211,hand1,6,cue,yellow,-1,-1,-1,4,4,-1,0.2546740859665988,-1,1,none,none,-1,-1,-1,1116881,50681,15:02:45.298788,hand
3,212,hand1,6,cue,blue,-1,-1,-1,3,3,-1,0.2231891648830242,-1,1,none,none,-1,-1,-1,1119664,50681,15:02:45.298788,hand
3,213,hand1,6,cue,blue,-1,-1,-1,3,3,-1,0.16633943872966483,-1,1,none,none,-1,-1,-1,1122414,50681,15:02:45.298788,hand
3,214,hand1,6,gabor,0,0.018278902818462617,3,3,-1,4,0.4877902955954596,-1,1,-1,incongruent,hit,4,3,2.3607585288218615,1128779,50681,15:02:45.298788,hand
3,215,hand1,6,gabor,0,0.018278902818462617,3,3,-1,3,0.6845171970344381,-1,1,-1,congruent,hit,q,3,2.4033489760190605,1135064,50681,15:02:45.298788,hand
3,216,hand1,6,gabor,0,0.018278902818462617,3,3,-1,4,0.636886812413195,-1,1,-1,incongruent,hit,3,4,2.359830412345673,1145061,50681,15:02:45.298788,hand
3,217,hand1,7,cue,blue,-1,-1,-1,3,3,-1,0.33255062305170213,-1,1,none,none,-1,-1,-1,1169229,50681,15:02:45.298788,hand
3,218,hand1,7,cue,blue,-1,-1,-1,3,3,-1,0.2084145643248121,-1,1,none,none,-1,-1,-1,1172061,50681,15:02:45.298788,hand
3,219,hand1,7,cue,blue,-1,-1,-1,3,3,-1,0.19827632220130909,-1,1,none,none,-1,-1,-1,1174795,50681,15:02:45.298788,hand
3,220,hand1,7,gabor,0,0.018278902818462617,3,3,-1,4,0.5420737816116343,-1,1,-1,incongruent,hit,4,4,4.613758395576042,1177528,50681,15:02:45.298788,hand
3,221,hand1,7,cue,yellow,-1,-1,-1,4,4,-1,0.2295166383214564,-1,1,none,none,-1,-1,-1,1186128,50681,15:02:45.298788,hand
3,222,hand1,7,cue,yellow,-1,-1,-1,4,4,-1,0.36320573043758486,-1,1,none,none,-1,-1,-1,1188694,50681,15:02:45.298788,hand
3,223,hand1,7,cue,blue,-1,-1,-1,3,3,-1,0.1892862258223431,-1,1,none,none,-1,-1,-1,1191595,50681,15:02:45.298788,hand
3,224,hand1,7,gabor,0,0.018278902818462617,3,3,-1,3,0.5471740062876052,-1,1,-1,congruent,hit,q,4,1.881057092795345,1194110,50681,15:02:45.298788,hand
3,225,hand1,7,gabor,90,0.018278902818462617,3,4,-1,3,0.626803865603506,-1,0,-1,congruent,FA,3,1,2.494574723360529,1199994,50681,15:02:45.298788,hand
3,226,hand1,7,cue,blue,-1,-1,-1,3,3,-1,0.3033074661343562,-1,1,none,none,-1,-1,-1,1206343,50681,15:02:45.298788,hand
3,227,hand1,7,cue,yellow,-1,-1,-1,4,4,-1,0.1823466639839353,-1,1,none,none,-1,-1,-1,1209076,50681,15:02:45.298788,hand
3,228,hand1,7,cue,yellow,-1,-1,-1,4,4,-1,0.20999278472936567,-1,1,none,none,-1,-1,-1,1211794,50681,15:02:45.298788,hand
3,229,hand1,7,cue,blue,-1,-1,-1,3,3,-1,0.18189930953849398,-1,1,none,none,-1,-1,-1,1217259,50681,15:02:45.298788,hand
3,230,hand1,7,gabor,90,0.018278902818462617,4,4,-1,4,0.44567907444843513,-1,1,-1,congruent,CR,4,3,1.3515123076231248,1219775,50681,15:02:45.298788,hand
3,231,hand1,7,cue,yellow,-1,-1,-1,4,4,-1,0.1803145612143453,-1,1,none,none,-1,-1,-1,1224926,50681,15:02:45.298788,hand
3,232,hand1,7,cue,yellow,-1,-1,-1,4,4,-1,0.21118700990200523,-1,1,none,none,-1,-1,-1,1227443,50681,15:02:45.298788,hand
3,233,hand1,7,cue,yellow,-1,-1,-1,4,4,-1,0.383064811866916,-1,1,none,none,-1,-1,-1,1229976,50681,15:02:45.298788,hand
3,234,hand1,7,gabor,0,0.018278902818462617,3,3,-1,4,0.5919040749190572,-1,1,-1,incongruent,hit,q,3,1.7007244838046063,1232792,50681,15:02:45.298788,hand
3,235,hand1,7,gabor,0,0.018278902818462617,3,3,-1,4,0.6984466240869551,-1,1,-1,incongruent,hit,c,2,3.687218603493875,1238443,50681,15:02:45.298788,hand
3,236,hand1,7,cue,blue,-1,-1,-1,3,3,-1,0.7188552026941579,-1,1,none,none,-1,-1,-1,1249925,50681,15:02:45.298788,hand
3,237,hand1,7,gabor,90,0.018278902818462617,4,4,-1,3,0.49578200437053965,-1,1,-1,incongruent,CR,3,3,1.9695768257342934,1253175,50681,15:02:45.298788,hand
3,238,hand1,7,cue,yellow,-1,-1,-1,4,4,-1,0.17250179421807843,-1,1,none,none,-1,-1,-1,1258992,50681,15:02:45.298788,hand
3,239,hand1,7,gabor,90,0.018278902818462617,4,4,-1,4,0.4263867699819457,-1,1,-1,congruent,CR,c,3,2.0371868662878114,1261591,50681,15:02:45.298788,hand
3,240,hand1,7,gabor,0,0.018278902818462617,3,3,-1,3,0.33670429947960656,-1,1,-1,congruent,hit,q,3,2.185646335015008,1270957,50681,15:02:45.298788,hand
3,241,hand1,7,cue,yellow,-1,-1,-1,4,4,-1,0.7404011751787039,-1,1,none,none,-1,-1,-1,1276925,50681,15:02:45.298788,hand
3,242,hand1,7,gabor,0,0.018278902818462617,3,3,-1,3,0.543219239390055,-1,1,-1,congruent,hit,3,3,1.9841920682711134,1279991,50681,15:02:45.298788,hand
3,243,hand1,7,cue,blue,-1,-1,-1,3,3,-1,0.23362500331177216,-1,1,none,none,-1,-1,-1,1288590,50681,15:02:45.298788,hand
3,244,hand1,7,cue,blue,-1,-1,-1,3,3,-1,0.214500888756902,-1,1,none,none,-1,-1,-1,1291157,50681,15:02:45.298788,hand
3,245,hand1,7,cue,blue,-1,-1,-1,3,3,-1,0.17533567903228686,-1,1,none,none,-1,-1,-1,1293807,50681,15:02:45.298788,hand
3,246,hand1,7,cue,yellow,-1,-1,-1,4,4,-1,0.18508339800428075,-1,1,none,none,-1,-1,-1,1296307,50681,15:02:45.298788,hand
3,247,hand1,7,cue,yellow,-1,-1,-1,4,4,-1,0.19504500232142163,-1,1,none,none,-1,-1,-1,1298923,50681,15:02:45.298788,hand
3,248,hand1,7,cue,yellow,-1,-1,-1,4,4,-1,0.1939625197614987,-1,1,none,none,-1,-1,-1,1304389,50681,15:02:45.298788,hand
3,249,hand1,7,gabor,90,0.018278902818462617,4,4,-1,3,0.327618204292321,-1,1,-1,incongruent,CR,4,4,1.92654132806274,1306906,50681,15:02:45.298788,hand
3,250,hand1,7,gabor,90,0.018278902818462617,4,4,-1,4,0.42094056560199533,-1,1,-1,congruent,CR,3,4,1.321191276088939,1312390,50681,15:02:45.298788,hand
3,251,hand1,7,cue,blue,-1,-1,-1,4,3,-1,0.4161713448165756,-1,0,none,none,-1,-1,-1,1317473,50681,15:02:45.298788,hand
3,252,hand1,7,cue,blue,-1,-1,-1,3,3,-1,0.1988008596886175,-1,1,none,none,-1,-1,-1,1320322,50681,15:02:45.298788,hand
3,253,hand1,8,cue,blue,-1,-1,-1,3,3,-1,0.2935355554623129,-1,1,none,none,-1,-1,-1,1344140,50681,15:02:45.298788,hand
3,254,hand1,8,cue,blue,-1,-1,-1,3,3,-1,0.162465310830612,-1,1,none,none,-1,-1,-1,1347040,50681,15:02:45.298788,hand
3,255,hand1,8,cue,yellow,-1,-1,-1,4,4,-1,0.19920866262555137,-1,1,none,none,-1,-1,-1,1349539,50681,15:02:45.298788,hand
3,256,hand1,8,gabor,0,0.018278902818462617,3,3,-1,3,0.5770860828993136,-1,1,-1,congruent,hit,4,3,3.7979102211465943,1352072,50681,15:02:45.298788,hand
3,257,hand1,8,cue,blue,-1,-1,-1,3,3,-1,0.2246533387042291,-1,1,none,none,-1,-1,-1,1359788,50681,15:02:45.298788,hand
3,258,hand1,8,cue,yellow,-1,-1,-1,4,4,-1,0.18346447410476685,-1,1,none,none,-1,-1,-1,1362539,50681,15:02:45.298788,hand
3,259,hand1,8,cue,yellow,-1,-1,-1,4,4,-1,0.17832546591080245,-1,1,none,none,-1,-1,-1,1365155,50681,15:02:45.298788,hand
3,260,hand1,8,gabor,0,0.018278902818462617,3,3,-1,4,0.41024053845330855,-1,1,-1,incongruent,hit,c,4,2.465157616602937,1367771,50681,15:02:45.298788,hand
3,261,hand1,8,gabor,90,0.018278902818462617,4,4,-1,4,0.514721801214364,-1,1,-1,congruent,CR,c,4,1.4727637941646208,1373887,50681,15:02:45.298788,hand
3,262,hand1,8,cue,blue,-1,-1,-1,3,3,-1,0.22354896841625305,-1,1,none,none,-1,-1,-1,1379205,50681,15:02:45.298788,hand
3,263,hand1,8,cue,yellow,-1,-1,-1,4,4,-1,0.22036987188766943,-1,1,none,none,-1,-1,-1,1381754,50681,15:02:45.298788,hand
3,264,hand1,8,gabor,90,0.018278902818462617,4,4,-1,4,0.4401756547790683,-1,1,-1,congruent,CR,q,4,2.5472185497342252,1384304,50681,15:02:45.298788,hand
3,265,hand1,8,cue,yellow,-1,-1,-1,4,4,-1,0.23871178815443272,-1,1,none,none,-1,-1,-1,1393570,50681,15:02:45.298788,hand
3,266,hand1,8,cue,blue,-1,-1,-1,3,3,-1,0.21060103317722678,-1,1,none,none,-1,-1,-1,1396138,50681,15:02:45.298788,hand
3,267,hand1,8,gabor,0,0.018278902818462617,3,3,-1,4,0.45636450977826826,-1,1,-1,incongruent,hit,3,2,1.856310520048737,1398872,50681,15:02:45.298788,hand
3,268,hand1,8,cue,blue,-1,-1,-1,3,3,-1,0.17269571181032006,-1,1,none,none,-1,-1,-1,1410919,50681,15:02:45.298788,hand
3,269,hand1,8,cue,yellow,-1,-1,-1,4,4,-1,0.1814815227253348,-1,1,none,none,-1,-1,-1,1413420,50681,15:02:45.298788,hand
3,270,hand1,8,cue,blue,-1,-1,-1,3,3,-1,0.15933805365875742,-1,1,none,none,-1,-1,-1,1416138,50681,15:02:45.298788,hand
3,271,hand1,8,cue,yellow,-1,-1,-1,4,4,-1,0.16522546856049303,-1,1,none,none,-1,-1,-1,1418720,50681,15:02:45.298788,hand
3,272,hand1,8,cue,yellow,-1,-1,-1,4,4,-1,0.17014252751005188,-1,1,none,none,-1,-1,-1,1421420,50681,15:02:45.298788,hand
3,273,hand1,8,gabor,90,0.018278902818462617,4,4,-1,4,0.33853442075678686,-1,1,-1,congruent,CR,c,1,1.5976060201237487,1427586,50681,15:02:45.298788,hand
3,274,hand1,8,cue,yellow,-1,-1,-1,4,4,-1,0.16440871070153662,-1,1,none,none,-1,-1,-1,1432770,50681,15:02:45.298788,hand
3,275,hand1,8,gabor,90,0.018278902818462617,4,4,-1,3,0.5180729276066813,-1,1,-1,incongruent,CR,c,2,1.9633365192139536,1435269,50681,15:02:45.298788,hand
3,276,hand1,8,gabor,0,0.018278902818462617,3,3,-1,4,0.599828968523525,-1,1,-1,incongruent,hit,c,4,1.2989199366097637,1441204,50681,15:02:45.298788,hand
3,277,hand1,8,cue,blue,-1,-1,-1,3,3,-1,0.44164674051398833,-1,1,none,none,-1,-1,-1,1446451,50681,15:02:45.298788,hand
3,278,hand1,8,gabor,90,0.018278902818462617,4,4,-1,3,0.5114797294677373,-1,1,-1,incongruent,CR,4,4,1.4784342517605182,1449219,50681,15:02:45.298788,hand
3,279,hand1,8,cue,yellow,-1,-1,-1,4,4,-1,0.2502109093816216,-1,1,none,none,-1,-1,-1,1454535,50681,15:02:45.298788,hand
3,280,hand1,8,cue,blue,-1,-1,-1,3,3,-1,0.25610715617358437,-1,1,none,none,-1,-1,-1,1457319,50681,15:02:45.298788,hand
3,281,hand1,8,cue,blue,-1,-1,-1,3,3,-1,0.48361741940607317,-1,1,none,none,-1,-1,-1,1463767,50681,15:02:45.298788,hand
3,282,hand1,8,cue,blue,-1,-1,-1,3,3,-1,0.16955309482864322,-1,1,none,none,-1,-1,-1,1466585,50681,15:02:45.298788,hand
3,283,hand1,8,cue,yellow,-1,-1,-1,4,4,-1,0.16938759288359506,-1,1,none,none,-1,-1,-1,1469185,50681,15:02:45.298788,hand
3,284,hand1,8,cue,yellow,-1,-1,-1,4,4,-1,0.18424283244121398,-1,1,none,none,-1,-1,-1,1471785,50681,15:02:45.298788,hand
3,285,hand1,8,gabor,0,0.018278902818462617,3,3,-1,3,0.6160066876609562,-1,1,-1,congruent,hit,4,3,2.225952778570445,1474301,50681,15:02:45.298788,hand
3,286,hand1,8,cue,blue,-1,-1,-1,3,3,-1,0.5076966084388914,-1,1,none,none,-1,-1,-1,1480384,50681,15:02:45.298788,hand
3,287,hand1,8,gabor,90,0.018278902818462617,4,4,-1,3,0.3955976482598089,-1,1,-1,incongruent,CR,c,3,2.5164017803558636,1483419,50681,15:02:45.298788,hand
3,288,hand1,8,gabor,0,0.018278902818462617,3,3,-1,3,0.5431274645293342,-1,1,-1,congruent,hit,q,2,1.4561076169675289,1489567,50681,15:02:45.298788,hand
3,289,hand1,9,gabor,90,0.018278902818462617,4,4,-1,4,0.33911886150008286,-1,1,-1,congruent,CR,q,4,1.7360313094350204,1509201,50681,15:02:45.298788,hand
3,290,hand1,9,gabor,0,0.018278902818462617,3,3,-1,4,0.3297708815648548,-1,1,-1,incongruent,hit,4,4,1.9167314018627621,1514566,50681,15:02:45.298788,hand
3,291,hand1,9,cue,blue,-1,-1,-1,3,3,-1,0.31546321920859555,-1,1,none,none,-1,-1,-1,1520251,50681,15:02:45.298788,hand
3,292,hand1,9,cue,blue,-1,-1,-1,3,3,-1,0.2153445262824789,-1,1,none,none,-1,-1,-1,1523000,50681,15:02:45.298788,hand
3,293,hand1,9,cue,yellow,-1,-1,-1,4,4,-1,0.18133560453725295,-1,1,none,none,-1,-1,-1,1525549,50681,15:02:45.298788,hand
3,294,hand1,9,cue,yellow,-1,-1,-1,4,4,-1,0.13210856774003332,-1,1,none,none,-1,-1,-1,1528267,50681,15:02:45.298788,hand
3,295,hand1,9,gabor,90,0.018278902818462617,4,4,-1,4,0.19959035388592383,-1,1,-1,congruent,CR,4,2,2.73861790132014,1534400,50681,15:02:45.298788,hand
3,296,hand1,9,cue,yellow,-1,-1,-1,4,4,-1,0.23329707138373124,-1,1,none,none,-1,-1,-1,1540682,50681,15:02:45.298788,hand
3,297,hand1,9,cue,blue,-1,-1,-1,3,3,-1,0.23014677449737064,-1,1,none,none,-1,-1,-1,1543349,50681,15:02:45.298788,hand
3,298,hand1,9,cue,yellow,-1,-1,-1,4,4,-1,0.18093816947157393,-1,1,none,none,-1,-1,-1,1546117,50681,15:02:45.298788,hand
3,299,hand1,9,cue,yellow,-1,-1,-1,4,4,-1,0.13982994387151848,-1,1,none,none,-1,-1,-1,1548833,50681,15:02:45.298788,hand
3,300,hand1,9,cue,yellow,-1,-1,-1,4,4,-1,0.17675415742041878,-1,1,none,none,-1,-1,-1,1551298,50681,15:02:45.298788,hand
3,301,hand1,9,gabor,90,0.018278902818462617,4,4,-1,3,0.23827902552784508,-1,1,-1,incongruent,CR,c,3,1.557425910999882,1554000,50681,15:02:45.298788,hand
3,302,hand1,9,gabor,90,0.018278902818462617,4,4,-1,4,0.5212424242540692,-1,1,-1,congruent,CR,q,4,1.6082545919111908,1559032,50681,15:02:45.298788,hand
3,303,hand1,9,cue,yellow,-1,-1,-1,4,4,-1,0.2828677839138436,-1,1,none,none,-1,-1,-1,1564599,50681,15:02:45.298788,hand
3,304,hand1,9,cue,blue,-1,-1,-1,3,3,-1,0.21679756424146035,-1,1,none,none,-1,-1,-1,1567314,50681,15:02:45.298788,hand
3,305,hand1,9,cue,blue,-1,-1,-1,3,3,-1,0.18077458750258302,-1,1,none,none,-1,-1,-1,1569964,50681,15:02:45.298788,hand
3,306,hand1,9,cue,blue,-1,-1,-1,3,3,-1,0.18349826568555727,-1,1,none,none,-1,-1,-1,1572582,50681,15:02:45.298788,hand
3,307,hand1,9,cue,yellow,-1,-1,-1,4,4,-1,0.16433843957383942,-1,1,none,none,-1,-1,-1,1575098,50681,15:02:45.298788,hand
3,308,hand1,9,cue,yellow,-1,-1,-1,4,4,-1,0.17323560910654123,-1,1,none,none,-1,-1,-1,1577598,50681,15:02:45.298788,hand
3,309,hand1,9,cue,blue,-1,-1,-1,3,3,-1,0.20712856429190651,-1,1,none,none,-1,-1,-1,1580299,50681,15:02:45.298788,hand
3,310,hand1,9,cue,yellow,-1,-1,-1,4,4,-1,0.1378846240245366,-1,1,none,none,-1,-1,-1,1582931,50681,15:02:45.298788,hand
3,311,hand1,9,cue,yellow,-1,-1,-1,4,4,-1,0.2677418277171455,-1,1,none,none,-1,-1,-1,1585397,50681,15:02:45.298788,hand
3,312,hand1,9,gabor,0,0.018278902818462617,3,3,-1,4,0.5123625345067921,-1,1,-1,incongruent,hit,c,3,2.1155487733467453,1587998,50681,15:02:45.298788,hand
3,313,hand1,9,cue,blue,-1,-1,-1,3,3,-1,0.20519822025880785,-1,1,none,none,-1,-1,-1,1596697,50681,15:02:45.298788,hand
3,314,hand1,9,gabor,0,0.018278902818462617,3,3,-1,3,0.7438068288943214,-1,1,-1,congruent,hit,3,2,2.1226450052395194,1602897,50681,15:02:45.298788,hand
3,315,hand1,9,cue,yellow,-1,-1,-1,4,4,-1,0.19339804677019856,-1,1,none,none,-1,-1,-1,1609198,50681,15:02:45.298788,hand
3,316,hand1,9,cue,blue,-1,-1,-1,3,3,-1,0.17007033640675218,-1,1,none,none,-1,-1,-1,1611813,50681,15:02:45.298788,hand
3,317,hand1,9,cue,blue,-1,-1,-1,3,3,-1,0.2121132064021367,-1,1,none,none,-1,-1,-1,1614414,50681,15:02:45.298788,hand
3,318,hand1,9,cue,blue,-1,-1,-1,3,3,-1,0.6946105117158368,-1,1,none,none,-1,-1,-1,1620829,50681,15:02:45.298788,hand
3,319,hand1,9,gabor,90,0.018278902818462617,4,4,-1,3,0.5224727449781312,-1,1,-1,incongruent,CR,q,3,2.269456750424979,1623947,50681,15:02:45.298788,hand
3,320,hand1,9,gabor,0,0.018278902818462617,3,3,-1,4,0.4663026903858736,-1,1,-1,incongruent,hit,c,3,2.219145311092234,1630080,50681,15:02:45.298788,hand
3,321,hand1,9,gabor,90,0.018278902818462617,4,4,-1,3,0.7179117264076922,-1,1,-1,incongruent,CR,q,1,1.6156369002519568,1636112,50681,15:02:45.298788,hand
3,322,hand1,9,cue,blue,-1,-1,-1,3,3,-1,0.771427989950098,-1,1,none,none,-1,-1,-1,1641897,50681,15:02:45.298788,hand
3,323,hand1,9,gabor,0,0.018278902818462617,3,3,-1,3,0.7211507261927181,-1,1,-1,congruent,hit,c,3,2.7362916582028447,1645096,50681,15:02:45.298788,hand
3,324,hand1,9,gabor,0,0.018278902818462617,3,3,-1,3,0.3387394742107972,-1,1,-1,congruent,hit,4,3,3.194688270750248,1655561,50681,15:02:45.298788,hand
3,325,hand1,10,gabor,90,0.018278902818462617,4,4,-1,3,0.32192009903974395,-1,1,-1,incongruent,CR,q,4,1.7837331171695041,1688544,50681,15:02:45.298788,hand
3,326,hand1,10,cue,yellow,-1,-1,-1,4,4,-1,0.21818801097742835,-1,1,none,none,-1,-1,-1,1694195,50681,15:02:45.298788,hand
3,327,hand1,10,cue,blue,-1,-1,-1,3,3,-1,0.2033796188384258,-1,1,none,none,-1,-1,-1,1696844,50681,15:02:45.298788,hand
3,328,hand1,10,cue,blue,-1,-1,-1,3,3,-1,0.18821526311921843,-1,1,none,none,-1,-1,-1,1699578,50681,15:02:45.298788,hand
3,329,hand1,10,cue,blue,-1,-1,-1,3,3,-1,0.19503924239279513,-1,1,none,none,-1,-1,-1,1702295,50681,15:02:45.298788,hand
3,330,hand1,10,cue,blue,-1,-1,-1,3,3,-1,0.17790422314101306,-1,1,none,none,-1,-1,-1,1704827,50681,15:02:45.298788,hand
3,331,hand1,10,cue,blue,-1,-1,-1,3,3,-1,0.212774446192725,-1,1,none,none,-1,-1,-1,1707427,50681,15:02:45.298788,hand
3,332,hand1,10,gabor,0,0.018278902818462617,3,3,-1,4,0.5034780368168867,-1,1,-1,incongruent,hit,c,4,1.8594615849251568,1710076,50681,15:02:45.298788,hand
3,333,hand1,10,cue,yellow,-1,-1,-1,4,4,-1,0.1852254762402481,-1,1,none,none,-1,-1,-1,1715777,50681,15:02:45.298788,hand
3,334,hand1,10,gabor,0,0.018278902818462617,3,3,-1,4,0.37615404967118593,-1,1,-1,incongruent,hit,q,4,5.861038269348683,1718393,50681,15:02:45.298788,hand
3,335,hand1,10,cue,blue,-1,-1,-1,3,3,-1,0.2665422266118185,-1,1,none,none,-1,-1,-1,1728061,50681,15:02:45.298788,hand
3,336,hand1,10,cue,blue,-1,-1,-1,3,3,-1,0.19849481548862968,-1,1,none,none,-1,-1,-1,1730760,50681,15:02:45.298788,hand
3,337,hand1,10,gabor,0,0.018278902818462617,3,3,-1,3,0.559293279814483,-1,1,-1,congruent,hit,q,3,2.122362768743642,1733293,50681,15:02:45.298788,hand
3,338,hand1,10,cue,yellow,-1,-1,-1,4,4,-1,0.1718063788521249,-1,1,none,none,-1,-1,-1,1742142,50681,15:02:45.298788,hand
3,339,hand1,10,cue,yellow,-1,-1,-1,4,4,-1,0.18265347617443695,-1,1,none,none,-1,-1,-1,1744843,50681,15:02:45.298788,hand
3,340,hand1,10,gabor,90,0.018278902818462617,4,4,-1,4,0.5053346537647485,-1,1,-1,congruent,CR,c,2,2.2501763498103173,1747560,50681,15:02:45.298788,hand
3,341,hand1,10,cue,yellow,-1,-1,-1,4,4,-1,0.19015712700911536,-1,1,none,none,-1,-1,-1,1753760,50681,15:02:45.298788,hand
3,342,hand1,10,gabor,90,0.018278902818462617,4,4,-1,3,0.34988301585235604,-1,1,-1,incongruent,CR,3,4,2.5147459929139586,1759108,50681,15:02:45.298788,hand
3,343,hand1,10,cue,yellow,-1,-1,-1,4,4,-1,0.25647233563950067,-1,1,none,none,-1,-1,-1,1765410,50681,15:02:45.298788,hand
3,344,hand1,10,cue,yellow,-1,-1,-1,4,4,-1,0.23522088749768955,-1,1,none,none,-1,-1,-1,1767992,50681,15:02:45.298788,hand
3,345,hand1,10,cue,yellow,-1,-1,-1,4,4,-1,0.16225065749586065,-1,1,none,none,-1,-1,-1,1770759,50681,15:02:45.298788,hand
3,346,hand1,10,gabor,0,0.018278902818462617,4,3,-1,3,0.5347095210463522,-1,0,-1,incongruent,miss,q,2,1.9316876321663585,1776924,50681,15:02:45.298788,hand
3,347,hand1,10,cue,blue,-1,-1,-1,4,3,-1,0.28453355523151913,-1,0,none,none,-1,-1,-1,1782725,50681,15:02:45.298788,hand
3,348,hand1,10,gabor,0,0.018278902818462617,3,3,-1,3,0.5051568639723882,-1,1,-1,congruent,hit,c,1,2.1721615744422706,1785341,50681,15:02:45.298788,hand
3,349,hand1,10,cue,blue,-1,-1,-1,3,3,-1,0.2087098566585155,-1,1,none,none,-1,-1,-1,1794290,50681,15:02:45.298788,hand
3,350,hand1,10,gabor,90,0.018278902818462617,4,4,-1,4,0.5116210397131908,-1,1,-1,congruent,CR,4,3,2.0675282495694773,1797024,50681,15:02:45.298788,hand
3,351,hand1,10,cue,yellow,-1,-1,-1,4,4,-1,0.2413175798010343,-1,1,none,none,-1,-1,-1,1803058,50681,15:02:45.298788,hand
3,352,hand1,10,cue,blue,-1,-1,-1,3,3,-1,0.1950695780165006,-1,1,none,none,-1,-1,-1,1805825,50681,15:02:45.298788,hand
3,353,hand1,10,cue,yellow,-1,-1,-1,4,4,-1,0.1951294812724882,-1,1,none,none,-1,-1,-1,1808357,50681,15:02:45.298788,hand
3,354,hand1,10,gabor,0,0.018278902818462617,3,3,-1,4,0.39981353191478775,-1,1,-1,incongruent,hit,4,3,2.376776121947387,1811091,50681,15:02:45.298788,hand
3,355,hand1,10,cue,yellow,-1,-1,-1,4,4,-1,0.18852975521440385,-1,1,none,none,-1,-1,-1,1817207,50681,15:02:45.298788,hand
3,356,hand1,10,cue,blue,-1,-1,-1,3,3,-1,0.5423160826030653,-1,1,none,none,-1,-1,-1,1823390,50681,15:02:45.298788,hand
3,357,hand1,10,cue,yellow,-1,-1,-1,4,4,-1,0.18307049499708228,-1,1,none,none,-1,-1,-1,1826457,50681,15:02:45.298788,hand
3,358,hand1,10,gabor,90,0.018278902818462617,4,4,-1,4,0.48165366778812313,-1,1,-1,congruent,CR,3,3,1.6607467401681788,1829174,50681,15:02:45.298788,hand
3,359,hand1,10,cue,blue,-1,-1,-1,3,3,-1,0.19960072175763344,-1,1,none,none,-1,-1,-1,1834640,50681,15:02:45.298788,hand
3,360,hand1,10,gabor,90,0.018278902818462617,4,4,-1,3,0.3012277479565455,-1,1,-1,incongruent,CR,4,3,1.4772427145544498,1837273,50681,15:02:45.298788,hand
3,361,hand1,11,cue,yellow,-1,-1,-1,4,4,-1,0.22330551543927868,-1,1,none,none,-1,-1,-1,1873471,50681,15:02:45.298788,hand
3,362,hand1,11,gabor,0,0.018278902818462617,3,3,-1,3,0.500156862051881,-1,1,-1,congruent,hit,q,4,4.270014311502564,1876356,50681,15:02:45.298788,hand
3,363,hand1,11,cue,yellow,-1,-1,-1,4,4,-1,0.2056421187480737,-1,1,none,none,-1,-1,-1,1884572,50681,15:02:45.298788,hand
3,364,hand1,11,cue,yellow,-1,-1,-1,4,4,-1,0.16744726497472584,-1,1,none,none,-1,-1,-1,1887205,50681,15:02:45.298788,hand
3,365,hand1,11,gabor,0,0.018278902818462617,3,3,-1,4,0.4081738761133238,-1,1,-1,incongruent,hit,4,3,1.8692780390438202,1889905,50681,15:02:45.298788,hand
3,366,hand1,11,cue,yellow,-1,-1,-1,4,4,-1,0.2741318923781364,-1,1,none,none,-1,-1,-1,1895622,50681,15:02:45.298788,hand
3,367,hand1,11,gabor,90,0.018278902818462617,4,4,-1,3,0.46665980595207657,-1,1,-1,incongruent,CR,q,3,2.8366641719776453,1901253,50681,15:02:45.298788,hand
3,368,hand1,11,cue,yellow,-1,-1,-1,4,4,-1,0.2351367925411978,-1,1,none,none,-1,-1,-1,1908005,50681,15:02:45.298788,hand
3,369,hand1,11,gabor,90,0.018278902818462617,4,4,-1,4,0.5280291559893158,-1,1,-1,congruent,CR,3,3,6.492026147003344,1910670,50681,15:02:45.298788,hand
3,370,hand1,11,gabor,0,0.018278902818462617,3,3,-1,4,0.48655882288585417,-1,1,-1,incongruent,hit,c,4,1.5294802739726947,1921122,50681,15:02:45.298788,hand
3,371,hand1,11,cue,blue,-1,-1,-1,3,3,-1,0.5583167799386501,-1,1,none,none,-1,-1,-1,1926571,50681,15:02:45.298788,hand
3,372,hand1,11,gabor,90,0.018278902818462617,4,4,-1,4,0.3991972195672133,-1,1,-1,congruent,CR,3,4,5.087992123490039,1929654,50681,15:02:45.298788,hand
3,373,hand1,11,cue,yellow,-1,-1,-1,4,4,-1,0.36760324383794796,-1,1,none,none,-1,-1,-1,1938486,50681,15:02:45.298788,hand
3,374,hand1,11,cue,yellow,-1,-1,-1,4,4,-1,0.21338615059721633,-1,1,none,none,-1,-1,-1,1941186,50681,15:02:45.298788,hand
3,375,hand1,11,cue,blue,-1,-1,-1,3,3,-1,0.20923938608393655,-1,1,none,none,-1,-1,-1,1943938,50681,15:02:45.298788,hand
3,376,hand1,11,gabor,90,0.018278902818462617,4,4,-1,3,0.34126078690587747,-1,1,-1,incongruent,CR,4,3,4.499019084179054,1946569,50681,15:02:45.298788,hand
3,377,hand1,11,cue,blue,-1,-1,-1,3,3,-1,0.3525460227883741,-1,1,none,none,-1,-1,-1,1954853,50681,15:02:45.298788,hand
3,378,hand1,11,cue,yellow,-1,-1,-1,4,4,-1,0.16951776726727985,-1,1,none,none,-1,-1,-1,1957536,50681,15:02:45.298788,hand
3,379,hand1,11,cue,blue,-1,-1,-1,3,3,-1,0.21338768657824403,-1,1,none,none,-1,-1,-1,1960237,50681,15:02:45.298788,hand
3,380,hand1,11,cue,yellow,-1,-1,-1,4,4,-1,0.18228637673291814,-1,1,none,none,-1,-1,-1,1962986,50681,15:02:45.298788,hand
3,381,hand1,11,cue,blue,-1,-1,-1,3,3,-1,0.15407731897539634,-1,1,none,none,-1,-1,-1,1965703,50681,15:02:45.298788,hand
3,382,hand1,11,cue,blue,-1,-1,-1,3,3,-1,0.1528577501185282,-1,1,none,none,-1,-1,-1,1968386,50681,15:02:45.298788,hand
3,383,hand1,11,cue,blue,-1,-1,-1,3,3,-1,0.16372980713094876,-1,1,none,none,-1,-1,-1,1971069,50681,15:02:45.298788,hand
3,384,hand1,11,cue,yellow,-1,-1,-1,4,4,-1,0.0935266467731708,-1,1,none,none,-1,-1,-1,1973669,50681,15:02:45.298788,hand
3,385,hand1,11,cue,yellow,-1,-1,-1,4,4,-1,0.16244035114050348,-1,1,none,none,-1,-1,-1,1976085,50681,15:02:45.298788,hand
3,386,hand1,11,cue,blue,-1,-1,-1,3,3,-1,0.16037368880006397,-1,1,none,none,-1,-1,-1,1978685,50681,15:02:45.298788,hand
3,387,hand1,11,cue,blue,-1,-1,-1,3,3,-1,0.16720074003569607,-1,1,none,none,-1,-1,-1,1981369,50681,15:02:45.298788,hand
3,388,hand1,11,cue,yellow,-1,-1,-1,4,4,-1,0.21854551053911564,-1,1,none,none,-1,-1,-1,1991201,50681,15:02:45.298788,hand
3,389,hand1,11,cue,blue,-1,-1,-1,3,3,-1,0.49129463608551305,-1,1,none,none,-1,-1,-1,1997517,50681,15:02:45.298788,hand
3,390,hand1,11,cue,blue,-1,-1,-1,3,3,-1,0.16512332582897216,-1,1,none,none,-1,-1,-1,2000334,50681,15:02:45.298788,hand
3,391,hand1,11,gabor,90,0.018278902818462617,4,4,-1,4,0.6186478068693759,-1,1,-1,congruent,CR,q,2,3.00357845157032,2006600,50681,15:02:45.298788,hand
3,392,hand1,11,cue,blue,-1,-1,-1,3,3,-1,0.25418986797831167,-1,1,none,none,-1,-1,-1,2013668,50681,15:02:45.298788,hand
3,393,hand1,11,gabor,90,0.018278902818462617,4,4,-1,3,0.39711097347026225,-1,1,-1,incongruent,CR,3,4,6.581915206940721,2016452,50681,15:02:45.298788,hand
3,394,hand1,11,gabor,0,0.018278902818462617,3,3,-1,3,0.49247810939141345,-1,1,-1,congruent,hit,3,4,2.424432618244282,2026885,50681,15:02:45.298788,hand
3,395,hand1,11,gabor,0,0.018278902818462617,3,3,-1,3,0.6531828020824832,-1,1,-1,congruent,hit,q,3,9.637959695092832,2033133,50681,15:02:45.298788,hand
3,396,hand1,11,gabor,0,0.018278902818462617,3,3,-1,4,0.761343123163897,-1,1,-1,incongruent,hit,3,3,2.4313568202733222,2046766,50681,15:02:45.298788,hand
