subject_id,trial,effector_order,block,condition,stim1,gabor.contrast,pressed_gabor,expected_gabor,pressed_cue,expected_cue,rt_gabor,rt_cue,accuracy_gabor,accuracy_cue,congruency,SDT,pressed_conf,conf,rt_conf,trial_start_time_rel2bloc,bloc_start_time_rel2exp,exp_start_date,effector
3,1,hand1,1,cue,blue,-1,-1,-1,3,3,-1,0.5493332114788245,-1,1,none,none,-1,-1,-1,8500,85622,14:54:52.355144,hand
3,2,hand1,1,cue,yellow,-1,-1,-1,4,4,-1,0.34117822793109553,-1,1,none,none,-1,-1,-1,12367,85622,14:54:52.355144,hand
3,3,hand1,1,cue,yellow,-1,-1,-1,4,4,-1,0.6220611404889951,-1,1,none,none,-1,-1,-1,15850,85622,14:54:52.355144,hand
3,4,hand1,1,cue,yellow,-1,-1,-1,4,4,-1,0.4199579218022791,-1,1,none,none,-1,-1,-1,19616,85622,14:54:52.355144,hand
3,5,hand1,1,cue,yellow,-1,-1,-1,4,4,-1,0.25457578318696505,-1,1,none,none,-1,-1,-1,23082,85622,14:54:52.355144,hand
3,6,hand1,1,cue,yellow,-1,-1,-1,4,4,-1,0.20245073437172323,-1,1,none,none,-1,-1,-1,26483,85622,14:54:52.355144,hand
3,7,hand1,1,gabor,90,0.018278902818462617,4,4,-1,4,0.6021218040557414,-1,1,-1,congruent,CR,3,4,8.271098714038317,29732,85622,14:54:52.355144,hand
3,8,hand1,1,cue,yellow,-1,-1,-1,4,4,-1,0.45527396331840464,-1,1,none,none,-1,-1,-1,47515,85622,14:54:52.355144,hand
3,9,hand1,1,cue,blue,-1,-1,-1,3,3,-1,0.5810938411389088,-1,1,none,none,-1,-1,-1,51014,85622,14:54:52.355144,hand
3,10,hand1,1,cue,yellow,-1,-1,-1,4,4,-1,0.28680565502099853,-1,1,none,none,-1,-1,-1,54748,85622,14:54:52.355144,hand
3,11,hand1,1,gabor,0,0.018278902818462617,3,3,-1,4,0.6876217984877258,-1,1,-1,incongruent,hit,3,3,2.9944908204020066,57980,85622,14:54:52.355144,hand
3,12,hand1,1,cue,yellow,-1,-1,-1,4,4,-1,0.5251307599764914,-1,1,none,none,-1,-1,-1,65099,85622,14:54:52.355144,hand
3,13,hand1,1,cue,yellow,-1,-1,-1,4,4,-1,0.5035125963877363,-1,1,none,none,-1,-1,-1,77997,85622,14:54:52.355144,hand
3,14,hand1,1,cue,blue,-1,-1,-1,3,3,-1,0.2670782839561525,-1,1,none,none,-1,-1,-1,81547,85622,14:54:52.355144,hand
3,15,hand1,1,cue,blue,-1,-1,-1,3,3,-1,0.2722334199497709,-1,1,none,none,-1,-1,-1,84763,85622,14:54:52.355144,hand
3,16,hand1,1,cue,yellow,-1,-1,-1,4,4,-1,0.1629188092001641,-1,1,none,none,-1,-1,-1,88181,85622,14:54:52.355144,hand
3,17,hand1,1,cue,blue,-1,-1,-1,3,3,-1,0.2657654042568538,-1,1,none,none,-1,-1,-1,91497,85622,14:54:52.355144,hand
3,18,hand1,1,cue,yellow,-1,-1,-1,4,4,-1,0.7764068721323838,-1,1,none,none,-1,-1,-1,97647,85622,14:54:52.355144,hand
3,19,hand1,1,gabor,0,0.018278902818462617,4,3,-1,3,0.4922239045479273,-1,0,-1,incongruent,miss,4,3,2.303116236508913,101363,85622,14:54:52.355144,hand
3,20,hand1,1,cue,blue,-1,-1,-1,4,3,-1,0.7238068212145663,-1,0,none,none,-1,-1,-1,107597,85622,14:54:52.355144,hand
3,21,hand1,1,gabor,90,0.018278902818462617,4,4,-1,3,0.5013606871057164,-1,1,-1,incongruent,CR,q,3,2.9425385694410124,111463,85622,14:54:52.355144,hand
3,22,hand1,1,gabor,0,0.018278902818462617,3,3,-1,4,0.649160452023807,-1,1,-1,incongruent,hit,3,2,10.308014479692247,118330,85622,14:54:52.355144,hand
3,23,hand1,1,gabor,90,0.018278902818462617,4,4,-1,3,0.35762704770263554,-1,1,-1,incongruent,CR,q,3,2.625553577126766,145728,85622,14:54:52.355144,hand
3,24,hand1,1,cue,blue,-1,-1,-1,3,3,-1,0.7243029430546812,-1,1,none,none,-1,-1,-1,151945,85622,14:54:52.355144,hand
3,25,hand1,1,cue,blue,-1,-1,-1,3,3,-1,0.6861188411485273,-1,1,none,none,-1,-1,-1,155611,85622,14:54:52.355144,hand
3,26,hand1,1,cue,blue,-1,-1,-1,3,3,-1,0.3908587630976399,-1,1,none,none,-1,-1,-1,159445,85622,14:54:52.355144,hand
3,27,hand1,1,cue,yellow,-1,-1,-1,4,4,-1,0.18870178507859237,-1,1,none,none,-1,-1,-1,162777,85622,14:54:52.355144,hand
3,28,hand1,1,cue,blue,-1,-1,-1,3,3,-1,0.6843501591083623,-1,1,none,none,-1,-1,-1,165911,85622,14:54:52.355144,hand
3,29,hand1,1,gabor,90,0.018278902818462617,4,4,-1,3,0.5612839110990535,-1,1,-1,incongruent,CR,4,3,4.369135768810338,169745,85622,14:54:52.355144,hand
3,30,hand1,1,cue,yellow,-1,-1,-1,4,4,-1,0.24774796396127385,-1,1,none,none,-1,-1,-1,177927,85622,14:54:52.355144,hand
3,31,hand1,1,cue,yellow,-1,-1,-1,4,4,-1,0.31648195855996164,-1,1,none,none,-1,-1,-1,181226,85622,14:54:52.355144,hand
3,32,hand1,1,cue,blue,-1,-1,-1,3,3,-1,0.24840997174192125,-1,1,none,none,-1,-1,-1,184695,85622,14:54:52.355144,hand
3,33,hand1,1,gabor,0,0.018278902818462617,3,3,-1,4,0.5392706164161609,-1,1,-1,incongruent,hit,c,4,3.9251193937177504,187893,85622,14:54:52.355144,hand
3,34,hand1,1,cue,blue,-1,-1,-1,4,3,-1,0.4148166096370005,-1,0,none,none,-1,-1,-1,195794,85622,14:54:52.355144,hand
3,35,hand1,1,gabor,90,0.018278902818462617,4,4,-1,4,0.7935226916222291,-1,1,-1,congruent,CR,4,1,3.7524167699932605,199159,85622,14:54:52.355144,hand
3,36,hand1,1,cue,blue,-1,-1,-1,3,3,-1,0.2937851523633981,-1,1,none,none,-1,-1,-1,212809,85622,14:54:52.355144,hand
3,37,hand1,2,cue,yellow,-1,-1,-1,3,4,-1,0.7210819910460486,-1,0,none,none,-1,-1,-1,241209,85622,14:54:52.355144,hand
3,38,hand1,2,cue,yellow,-1,-1,-1,4,4,-1,0.1897650678770333,-1,1,none,none,-1,-1,-1,248724,85622,14:54:52.355144,hand
3,39,hand1,2,cue,blue,-1,-1,-1,3,3,-1,0.20956846999797563,-1,1,none,none,-1,-1,-1,251957,85622,14:54:52.355144,hand
3,40,hand1,2,cue,blue,-1,-1,-1,3,3,-1,0.2463056778688042,-1,1,none,none,-1,-1,-1,255208,85622,14:54:52.355144,hand
3,41,hand1,2,gabor,90,0.018278902818462617,4,4,-1,4,0.3062296698526552,-1,1,-1,congruent,CR,4,2,6.167136228836625,258408,85622,14:54:52.355144,hand
3,42,hand1,2,cue,blue,-1,-1,-1,3,3,-1,0.3727099964326044,-1,1,none,none,-1,-1,-1,268224,85622,14:54:52.355144,hand
3,43,hand1,2,cue,yellow,-1,-1,-1,4,4,-1,0.2214331546856556,-1,1,none,none,-1,-1,-1,271641,85622,14:54:52.355144,hand
3,44,hand1,2,gabor,90,0.018278902818462617,4,4,-1,3,0.5992161121325807,-1,1,-1,incongruent,CR,4,4,2.3642820690738517,274907,85622,14:54:52.355144,hand
3,45,hand1,2,cue,yellow,-1,-1,-1,4,4,-1,0.23574504098951365,-1,1,none,none,-1,-1,-1,283940,85622,14:54:52.355144,hand
3,46,hand1,2,cue,blue,-1,-1,-1,3,3,-1,0.1964584887714409,-1,1,none,none,-1,-1,-1,287324,85622,14:54:52.355144,hand
3,47,hand1,2,gabor,90,0.018278902818462617,4,4,-1,3,0.554130847910983,-1,1,-1,incongruent,CR,c,3,2.760299040127393,290474,85622,14:54:52.355144,hand
3,48,hand1,2,gabor,0,0.018278902818462617,3,3,-1,4,0.6994845631998032,-1,1,-1,incongruent,hit,q,2,1.9145449330103474,302889,85622,14:54:52.355144,hand
3,49,hand1,2,cue,blue,-1,-1,-1,3,3,-1,0.5882254005937284,-1,1,none,none,-1,-1,-1,308740,85622,14:54:52.355144,hand
3,50,hand1,2,gabor,0,0.018278902818462617,3,3,-1,3,0.6571080013472965,-1,1,-1,congruent,hit,q,3,7.765001061746716,312474,85622,14:54:52.355144,hand
3,51,hand1,2,gabor,0,0.018278902818462617,3,3,-1,3,0.6954745009884391,-1,1,-1,congruent,hit,c,4,2.6413714927311958,324139,85622,14:54:52.355144,hand
3,52,hand1,2,cue,blue,-1,-1,-1,3,3,-1,0.7621491291561142,-1,1,none,none,-1,-1,-1,330805,85622,14:54:52.355144,hand
3,53,hand1,2,gabor,90,0.018278902818462617,4,4,-1,3,0.6177020266118234,-1,1,-1,incongruent,CR,4,2,3.1406079182120266,337538,85622,14:54:52.355144,hand
3,54,hand1,2,cue,blue,-1,-1,-1,3,3,-1,0.6231489989818328,-1,1,none,none,-1,-1,-1,348305,85622,14:54:52.355144,hand
3,55,hand1,2,cue,blue,-1,-1,-1,3,3,-1,0.40767199434458234,-1,1,none,none,-1,-1,-1,355538,85622,14:54:52.355144,hand
3,56,hand1,2,cue,yellow,-1,-1,-1,4,4,-1,0.21447439308576577,-1,1,none,none,-1,-1,-1,359089,85622,14:54:52.355144,hand
