subject_id,trial,effector_order,block,condition,stim1,gabor.contrast,pressed_gabor,expected_gabor,pressed_cue,expected_cue,rt_gabor,rt_cue,accuracy_gabor,accuracy_cue,congruency,SDT,pressed_conf,conf,rt_conf,trial_start_time_rel2bloc,bloc_start_time_rel2exp,exp_start_date,effector
12,1,feet1,1,cue,yellow,-1,-1,-1,c,c,-1,0.38263303084841027,-1,1,none,none,-1,-1,-1,0,26958,11:38:15.737452,feet
12,2,feet1,1,gabor,0,0.010879720458874385,3,4,-1,c,0.538215841438614,-1,0,-1,incongruent,miss,3,4,1.119258907123367,6632,26958,11:38:15.737452,feet
12,3,feet1,1,gabor,90,0.010879720458874385,3,3,-1,q,0.5477511780936766,-1,1,-1,congruent,CR,3,4,0.5567258836463225,14565,26958,11:38:15.737452,feet
12,4,feet1,1,cue,yellow,-1,-1,-1,c,c,-1,0.27044613947873586,-1,1,none,none,-1,-1,-1,19015,26958,11:38:15.737452,feet
12,5,feet1,1,gabor,0,0.010879720458874385,4,4,-1,q,0.7164373967052597,-1,1,-1,incongruent,hit,q,2,0.5782767735909147,21715,26958,11:38:15.737452,feet
12,6,feet1,1,cue,yellow,-1,-1,-1,c,c,-1,0.4380521832363229,-1,1,none,none,-1,-1,-1,26450,26958,11:38:15.737452,feet
12,7,feet1,1,gabor,90,0.010879720458874385,3,3,-1,c,0.6430450255893447,-1,1,-1,incongruent,CR,q,2,0.5618441384094695,29416,26958,11:38:15.737452,feet
12,8,feet1,1,cue,blue,-1,-1,-1,q,q,-1,0.22178835177510337,-1,1,none,none,-1,-1,-1,33849,26958,11:38:15.737452,feet
12,9,feet1,1,cue,blue,-1,-1,-1,q,q,-1,0.23165277120733663,-1,1,none,none,-1,-1,-1,36599,26958,11:38:15.737452,feet
12,10,feet1,1,gabor,0,0.010879720458874385,4,4,-1,q,0.6884258093050448,-1,1,-1,incongruent,hit,q,1,0.7582954203353438,39264,26958,11:38:15.737452,feet
12,11,feet1,1,cue,blue,-1,-1,-1,q,q,-1,0.35430042454390787,-1,1,none,none,-1,-1,-1,44149,26958,11:38:15.737452,feet
12,12,feet1,1,cue,blue,-1,-1,-1,q,q,-1,0.2297892487849822,-1,1,none,none,-1,-1,-1,49864,26958,11:38:15.737452,feet
12,13,feet1,1,cue,yellow,-1,-1,-1,c,c,-1,0.26363063165445055,-1,1,none,none,-1,-1,-1,52632,26958,11:38:15.737452,feet
12,14,feet1,1,gabor,90,0.010879720458874385,4,3,-1,q,0.7033973476773099,-1,0,-1,incongruent,FA,3,1,0.8043501133552127,55432,26958,11:38:15.737452,feet
12,15,feet1,1,cue,blue,-1,-1,-1,q,q,-1,0.4252283227751832,-1,1,none,none,-1,-1,-1,60381,26958,11:38:15.737452,feet
12,16,feet1,1,cue,blue,-1,-1,-1,q,q,-1,0.2951757309710956,-1,1,none,none,-1,-1,-1,63248,26958,11:38:15.737452,feet
12,17,feet1,1,cue,blue,-1,-1,-1,q,q,-1,0.2654638185576914,-1,1,none,none,-1,-1,-1,72380,26958,11:38:15.737452,feet
12,18,feet1,1,cue,yellow,-1,-1,-1,c,c,-1,0.3293488845747561,-1,1,none,none,-1,-1,-1,74980,26958,11:38:15.737452,feet
12,19,feet1,1,cue,blue,-1,-1,-1,q,q,-1,0.28104782720856747,-1,1,none,none,-1,-1,-1,81413,26958,11:38:15.737452,feet
12,20,feet1,1,cue,blue,-1,-1,-1,q,q,-1,0.2557979239754786,-1,1,none,none,-1,-1,-1,84030,26958,11:38:15.737452,feet
12,21,feet1,1,cue,yellow,-1,-1,-1,c,c,-1,0.3726050300128918,-1,1,none,none,-1,-1,-1,86730,26958,11:38:15.737452,feet
12,22,feet1,1,cue,yellow,-1,-1,-1,c,c,-1,0.21655451484639343,-1,1,none,none,-1,-1,-1,89630,26958,11:38:15.737452,feet
12,23,feet1,1,gabor,90,0.010879720458874385,4,3,-1,c,0.5453055209109152,-1,0,-1,congruent,FA,4,4,0.8182737323595575,92179,26958,11:38:15.737452,feet
12,24,feet1,1,cue,blue,-1,-1,-1,q,q,-1,0.4702496881973275,-1,1,none,none,-1,-1,-1,96880,26958,11:38:15.737452,feet
12,25,feet1,1,gabor,90,0.010879720458874385,3,3,-1,q,0.5988826545344637,-1,1,-1,congruent,CR,q,1,0.7788878614910573,99680,26958,11:38:15.737452,feet
12,26,feet1,1,gabor,0,0.010879720458874385,3,4,-1,c,0.5726401270558199,-1,0,-1,incongruent,miss,c,2,1.2886685702524119,104396,26958,11:38:15.737452,feet
12,27,feet1,1,cue,blue,-1,-1,-1,q,q,-1,0.2903639033447689,-1,1,none,none,-1,-1,-1,109596,26958,11:38:15.737452,feet
12,28,feet1,1,cue,yellow,-1,-1,-1,c,c,-1,0.3172046933268575,-1,1,none,none,-1,-1,-1,112329,26958,11:38:15.737452,feet
12,29,feet1,1,cue,yellow,-1,-1,-1,c,c,-1,0.283140593992357,-1,1,none,none,-1,-1,-1,115180,26958,11:38:15.737452,feet
12,30,feet1,1,gabor,90,0.010879720458874385,3,3,-1,c,0.6237274441982663,-1,1,-1,incongruent,CR,c,1,0.7216577938479531,120728,26958,11:38:15.737452,feet
12,31,feet1,1,cue,yellow,-1,-1,-1,c,c,-1,0.2464442164373395,-1,1,none,none,-1,-1,-1,125513,26958,11:38:15.737452,feet
12,32,feet1,1,cue,yellow,-1,-1,-1,c,c,-1,0.25528298814788286,-1,1,none,none,-1,-1,-1,128296,26958,11:38:15.737452,feet
12,33,feet1,1,cue,yellow,-1,-1,-1,c,c,-1,0.22431234371470055,-1,1,none,none,-1,-1,-1,131079,26958,11:38:15.737452,feet
12,34,feet1,1,gabor,0,0.010879720458874385,3,4,-1,q,0.40278541498992126,-1,0,-1,congruent,miss,3,1,1.2507764356769258,137411,26958,11:38:15.737452,feet
12,35,feet1,1,cue,blue,-1,-1,-1,q,q,-1,0.1985578724898005,-1,1,none,none,-1,-1,-1,142512,26958,11:38:15.737452,feet
12,36,feet1,1,gabor,0,0.010879720458874385,4,4,-1,c,0.5331321461262633,-1,1,-1,congruent,hit,3,1,0.8012462906190194,145044,26958,11:38:15.737452,feet
12,37,feet1,2,gabor,0,0.010879720458874385,4,4,-1,q,0.5217094794270452,-1,1,-1,incongruent,hit,c,1,0.8817022296225332,154844,26958,11:38:15.737452,feet
12,38,feet1,2,cue,yellow,-1,-1,-1,c,c,-1,0.3933714204085845,-1,1,none,none,-1,-1,-1,163277,26958,11:38:15.737452,feet
12,39,feet1,2,gabor,0,0.010879720458874385,3,4,-1,c,0.6121918832905067,-1,0,-1,incongruent,miss,q,1,4.712013786916941,166010,26958,11:38:15.737452,feet
12,40,feet1,2,gabor,90,0.010879720458874385,3,3,-1,q,0.6336202791790129,-1,1,-1,congruent,CR,q,2,1.1096655873880081,174660,26958,11:38:15.737452,feet
12,41,feet1,2,cue,blue,-1,-1,-1,q,q,-1,0.21037758888724056,-1,1,none,none,-1,-1,-1,179844,26958,11:38:15.737452,feet
12,42,feet1,2,cue,yellow,-1,-1,-1,c,c,-1,0.33723535140052263,-1,1,none,none,-1,-1,-1,182476,26958,11:38:15.737452,feet
12,43,feet1,2,cue,yellow,-1,-1,-1,c,c,-1,0.30302111044875346,-1,1,none,none,-1,-1,-1,185345,26958,11:38:15.737452,feet
12,44,feet1,2,cue,blue,-1,-1,-1,q,q,-1,0.32479625283394853,-1,1,none,none,-1,-1,-1,190809,26958,11:38:15.737452,feet
12,45,feet1,2,gabor,90,0.010879720458874385,3,3,-1,c,0.611518741974578,-1,1,-1,incongruent,CR,q,2,1.222487988670764,193460,26958,11:38:15.737452,feet
12,46,feet1,2,gabor,0,0.010879720458874385,4,4,-1,q,0.6702717294474496,-1,1,-1,incongruent,hit,q,1,1.209304709915159,198727,26958,11:38:15.737452,feet
12,47,feet1,2,gabor,0,0.010879720458874385,3,4,-1,c,0.5020121280631429,-1,0,-1,incongruent,miss,c,2,1.4596883198273645,204044,26958,11:38:15.737452,feet
12,48,feet1,2,cue,yellow,-1,-1,-1,c,c,-1,0.2596678145519036,-1,1,none,none,-1,-1,-1,209443,26958,11:38:15.737452,feet
12,49,feet1,2,cue,blue,-1,-1,-1,q,q,-1,0.3043140179279362,-1,1,none,none,-1,-1,-1,212126,26958,11:38:15.737452,feet
12,50,feet1,2,gabor,0,0.010879720458874385,3,4,-1,c,0.45728720593706385,-1,0,-1,incongruent,miss,q,2,1.4132204493644167,214859,26958,11:38:15.737452,feet
12,51,feet1,2,cue,yellow,-1,-1,-1,c,c,-1,0.39498995471967646,-1,1,none,none,-1,-1,-1,220076,26958,11:38:15.737452,feet
12,52,feet1,2,cue,yellow,-1,-1,-1,c,c,-1,0.32885468441872945,-1,1,none,none,-1,-1,-1,222909,26958,11:38:15.737452,feet
12,53,feet1,2,gabor,0,0.010879720458874385,3,4,-1,q,0.5086805662222105,-1,0,-1,congruent,miss,q,3,1.0876462248788812,225575,26958,11:38:15.737452,feet
12,54,feet1,2,gabor,90,0.010879720458874385,3,3,-1,c,0.4504110270763704,-1,1,-1,incongruent,CR,3,2,1.4294034885078872,230609,26958,11:38:15.737452,feet
12,55,feet1,2,cue,blue,-1,-1,-1,q,q,-1,0.2612371976429131,-1,1,none,none,-1,-1,-1,235825,26958,11:38:15.737452,feet
12,56,feet1,2,cue,yellow,-1,-1,-1,c,c,-1,0.2889534937303324,-1,1,none,none,-1,-1,-1,238525,26958,11:38:15.737452,feet
12,57,feet1,2,cue,blue,-1,-1,-1,q,q,-1,0.2888356076009586,-1,1,none,none,-1,-1,-1,241343,26958,11:38:15.737452,feet
12,58,feet1,2,cue,yellow,-1,-1,-1,c,c,-1,0.19670548589056125,-1,1,none,none,-1,-1,-1,244058,26958,11:38:15.737452,feet
12,59,feet1,2,cue,blue,-1,-1,-1,q,q,-1,0.26251743332340993,-1,1,none,none,-1,-1,-1,246591,26958,11:38:15.737452,feet
12,60,feet1,2,cue,blue,-1,-1,-1,q,q,-1,0.24238501686522795,-1,1,none,none,-1,-1,-1,249291,26958,11:38:15.737452,feet
12,61,feet1,2,gabor,90,0.010879720458874385,3,3,-1,q,0.7711749599111499,-1,1,-1,congruent,CR,q,1,0.7742987503306722,251957,26958,11:38:15.737452,feet
12,62,feet1,2,cue,yellow,-1,-1,-1,c,c,-1,0.28555898760714626,-1,1,none,none,-1,-1,-1,263241,26958,11:38:15.737452,feet
12,63,feet1,2,cue,blue,-1,-1,-1,q,q,-1,0.2362445703265621,-1,1,none,none,-1,-1,-1,266058,26958,11:38:15.737452,feet
12,64,feet1,2,cue,yellow,-1,-1,-1,c,c,-1,0.2982426902926818,-1,1,none,none,-1,-1,-1,268723,26958,11:38:15.737452,feet
12,65,feet1,2,cue,blue,-1,-1,-1,q,q,-1,0.28126017583872454,-1,1,none,none,-1,-1,-1,271558,26958,11:38:15.737452,feet
12,66,feet1,2,cue,blue,-1,-1,-1,q,q,-1,0.21195273188641295,-1,1,none,none,-1,-1,-1,274274,26958,11:38:15.737452,feet
12,67,feet1,2,cue,yellow,-1,-1,-1,c,c,-1,0.2348341607121256,-1,1,none,none,-1,-1,-1,276924,26958,11:38:15.737452,feet
12,68,feet1,2,cue,blue,-1,-1,-1,q,q,-1,0.21567593679174024,-1,1,none,none,-1,-1,-1,279590,26958,11:38:15.737452,feet
12,69,feet1,2,gabor,90,0.010879720458874385,3,3,-1,q,0.5464601905841846,-1,1,-1,congruent,CR,c,2,0.7923994550365023,282140,26958,11:38:15.737452,feet
12,70,feet1,2,cue,blue,-1,-1,-1,q,q,-1,0.24720068443093624,-1,1,none,none,-1,-1,-1,286806,26958,11:38:15.737452,feet
12,71,feet1,2,cue,yellow,-1,-1,-1,c,c,-1,0.20816501600438642,-1,1,none,none,-1,-1,-1,289390,26958,11:38:15.737452,feet
12,72,feet1,2,gabor,90,0.010879720458874385,3,3,-1,c,0.4836660512519302,-1,1,-1,incongruent,CR,q,2,1.7216382101587442,295789,26958,11:38:15.737452,feet
12,73,feet1,3,gabor,90,0.010879720458874385,3,3,-1,c,0.3682440112306722,-1,1,-1,incongruent,CR,q,2,0.7992122749028567,303972,26958,11:38:15.737452,feet
12,74,feet1,3,cue,blue,-1,-1,-1,q,q,-1,0.27309608141877106,-1,1,none,none,-1,-1,-1,308390,26958,11:38:15.737452,feet
12,75,feet1,3,gabor,90,0.010879720458874385,3,3,-1,q,0.42974255512672244,-1,1,-1,congruent,CR,3,3,1.250798323329036,310989,26958,11:38:15.737452,feet
12,76,feet1,3,gabor,0,0.010879720458874385,3,4,-1,c,0.5973148074190249,-1,0,-1,incongruent,miss,c,1,1.2684919944949797,316022,26958,11:38:15.737452,feet
12,77,feet1,3,cue,yellow,-1,-1,-1,c,c,-1,0.27627439897241857,-1,1,none,none,-1,-1,-1,321323,26958,11:38:15.737452,feet
12,78,feet1,3,cue,blue,-1,-1,-1,q,q,-1,0.2540922230482465,-1,1,none,none,-1,-1,-1,327690,26958,11:38:15.737452,feet
12,79,feet1,3,cue,blue,-1,-1,-1,q,q,-1,0.2457403556090867,-1,1,none,none,-1,-1,-1,330473,26958,11:38:15.737452,feet
12,80,feet1,3,cue,blue,-1,-1,-1,q,q,-1,0.39460596081426047,-1,1,none,none,-1,-1,-1,333155,26958,11:38:15.737452,feet
12,81,feet1,3,cue,yellow,-1,-1,-1,c,c,-1,0.2825669070980439,-1,1,none,none,-1,-1,-1,335988,26958,11:38:15.737452,feet
12,82,feet1,3,gabor,90,0.010879720458874385,3,3,-1,q,0.3601839791599559,-1,1,-1,congruent,CR,q,2,1.5432638253168989,338805,26958,11:38:15.737452,feet
12,83,feet1,3,cue,blue,-1,-1,-1,q,q,-1,0.25099300823876547,-1,1,none,none,-1,-1,-1,344156,26958,11:38:15.737452,feet
12,84,feet1,3,cue,yellow,-1,-1,-1,c,c,-1,0.2997510183513441,-1,1,none,none,-1,-1,-1,346738,26958,11:38:15.737452,feet
12,85,feet1,3,cue,yellow,-1,-1,-1,c,c,-1,0.21859659443452983,-1,1,none,none,-1,-1,-1,349572,26958,11:38:15.737452,feet
12,86,feet1,3,gabor,0,0.010879720458874385,3,4,-1,q,0.47341571794549964,-1,0,-1,congruent,miss,3,1,1.6715492771700156,352221,26958,11:38:15.737452,feet
12,87,feet1,3,gabor,90,0.010879720458874385,3,3,-1,c,0.6252561239343777,-1,1,-1,incongruent,CR,3,2,1.1202296437149926,357788,26958,11:38:15.737452,feet
12,88,feet1,3,cue,blue,-1,-1,-1,q,q,-1,0.2629494264665482,-1,1,none,none,-1,-1,-1,362871,26958,11:38:15.737452,feet
12,89,feet1,3,gabor,90,0.010879720458874385,3,3,-1,q,0.23568201925445464,-1,1,-1,congruent,CR,3,3,1.3657058115168184,365571,26958,11:38:15.737452,feet
12,90,feet1,3,gabor,0,0.010879720458874385,3,4,-1,q,0.6444504432820395,-1,0,-1,congruent,miss,4,1,1.1163666650281812,370520,26958,11:38:15.737452,feet
12,91,feet1,3,cue,blue,-1,-1,-1,q,q,-1,0.23724986637080292,-1,1,none,none,-1,-1,-1,375721,26958,11:38:15.737452,feet
12,92,feet1,3,cue,yellow,-1,-1,-1,c,c,-1,0.2870915072835487,-1,1,none,none,-1,-1,-1,378287,26958,11:38:15.737452,feet
12,93,feet1,3,gabor,0,0.010879720458874385,3,4,-1,c,0.38689037127642223,-1,0,-1,incongruent,miss,q,1,1.2518328029100303,381105,26958,11:38:15.737452,feet
12,94,feet1,3,cue,yellow,-1,-1,-1,c,c,-1,0.21943216517229303,-1,1,none,none,-1,-1,-1,385970,26958,11:38:15.737452,feet
12,95,feet1,3,cue,yellow,-1,-1,-1,c,c,-1,0.36644154383975547,-1,1,none,none,-1,-1,-1,388721,26958,11:38:15.737452,feet
12,96,feet1,3,cue,blue,-1,-1,-1,q,q,-1,0.4022236319060539,-1,1,none,none,-1,-1,-1,391419,26958,11:38:15.737452,feet
12,97,feet1,3,gabor,90,0.010879720458874385,4,3,-1,c,0.5530030627351152,-1,0,-1,congruent,FA,c,2,2.2509814884215302,394355,26958,11:38:15.737452,feet
12,98,feet1,3,cue,yellow,-1,-1,-1,c,c,-1,0.2907306175238773,-1,1,none,none,-1,-1,-1,400403,26958,11:38:15.737452,feet
12,99,feet1,3,cue,yellow,-1,-1,-1,c,c,-1,0.2506351259189614,-1,1,none,none,-1,-1,-1,403019,26958,11:38:15.737452,feet
12,100,feet1,3,gabor,0,0.010879720458874385,3,4,-1,q,0.5904463084361851,-1,0,-1,congruent,miss,4,1,0.9063615502300308,405803,26958,11:38:15.737452,feet
12,101,feet1,3,cue,yellow,-1,-1,-1,c,c,-1,0.302332609376208,-1,1,none,none,-1,-1,-1,410737,26958,11:38:15.737452,feet
12,102,feet1,3,cue,yellow,-1,-1,-1,c,c,-1,0.293095635985992,-1,1,none,none,-1,-1,-1,413369,26958,11:38:15.737452,feet
12,103,feet1,3,cue,blue,-1,-1,-1,q,q,-1,0.2598797791879406,-1,1,none,none,-1,-1,-1,416187,26958,11:38:15.737452,feet
12,104,feet1,3,cue,blue,-1,-1,-1,q,q,-1,0.25672181331174215,-1,1,none,none,-1,-1,-1,418869,26958,11:38:15.737452,feet
12,105,feet1,3,cue,yellow,-1,-1,-1,c,c,-1,0.28550330849157035,-1,1,none,none,-1,-1,-1,421552,26958,11:38:15.737452,feet
12,106,feet1,3,cue,blue,-1,-1,-1,q,q,-1,0.26135469977816683,-1,1,none,none,-1,-1,-1,424369,26958,11:38:15.737452,feet
12,107,feet1,3,cue,blue,-1,-1,-1,q,q,-1,0.26927879800678056,-1,1,none,none,-1,-1,-1,427169,26958,11:38:15.737452,feet
12,108,feet1,3,gabor,0,0.010879720458874385,4,4,-1,c,0.560102726049081,-1,1,-1,congruent,hit,4,1,1.7799887720184415,429970,26958,11:38:15.737452,feet
12,109,feet1,4,cue,yellow,-1,-1,-1,c,c,-1,0.2807813354384052,-1,1,none,none,-1,-1,-1,451301,26958,11:38:15.737452,feet
12,110,feet1,4,cue,yellow,-1,-1,-1,c,c,-1,0.13371858161826822,-1,1,none,none,-1,-1,-1,453968,26958,11:38:15.737452,feet
12,111,feet1,4,cue,blue,-1,-1,-1,q,q,-1,0.22752445273181365,-1,1,none,none,-1,-1,-1,456635,26958,11:38:15.737452,feet
12,112,feet1,4,cue,yellow,-1,-1,-1,c,c,-1,0.21342419653137767,-1,1,none,none,-1,-1,-1,459385,26958,11:38:15.737452,feet
12,113,feet1,4,cue,yellow,-1,-1,-1,c,c,-1,0.22425282465883356,-1,1,none,none,-1,-1,-1,461934,26958,11:38:15.737452,feet
12,114,feet1,4,gabor,90,0.010879720458874385,4,3,-1,c,0.3880746084796556,-1,0,-1,congruent,FA,3,2,3.4069793964226847,464485,26958,11:38:15.737452,feet
12,115,feet1,4,gabor,90,0.010879720458874385,4,3,-1,q,0.42666561196347175,-1,0,-1,incongruent,FA,4,1,1.7316443233412429,471617,26958,11:38:15.737452,feet
12,116,feet1,4,cue,yellow,-1,-1,-1,c,c,-1,0.32139368283878866,-1,1,none,none,-1,-1,-1,477117,26958,11:38:15.737452,feet
12,117,feet1,4,cue,yellow,-1,-1,-1,c,c,-1,0.27925534365931526,-1,1,none,none,-1,-1,-1,479968,26958,11:38:15.737452,feet
12,118,feet1,4,gabor,90,0.010879720458874385,4,3,-1,c,0.5550689499459622,-1,0,-1,congruent,FA,3,1,2.648985795297449,482584,26958,11:38:15.737452,feet
12,119,feet1,4,cue,blue,-1,-1,-1,q,q,-1,0.30080738558535813,-1,1,none,none,-1,-1,-1,489033,26958,11:38:15.737452,feet
12,120,feet1,4,cue,blue,-1,-1,-1,q,q,-1,0.22357353944062197,-1,1,none,none,-1,-1,-1,491766,26958,11:38:15.737452,feet
12,121,feet1,4,gabor,0,0.010879720458874385,3,4,-1,c,0.640315212916903,-1,0,-1,incongruent,miss,3,1,0.7632992449143785,494416,26958,11:38:15.737452,feet
12,122,feet1,4,gabor,0,0.010879720458874385,4,4,-1,c,0.6320140326733963,-1,1,-1,congruent,hit,q,2,4.334979387206658,499067,26958,11:38:15.737452,feet
12,123,feet1,4,gabor,90,0.010879720458874385,3,3,-1,c,0.3715601825970225,-1,1,-1,incongruent,CR,4,3,1.345531155729077,507484,26958,11:38:15.737452,feet
12,124,feet1,4,cue,blue,-1,-1,-1,q,q,-1,0.5133545400367439,-1,1,none,none,-1,-1,-1,512532,26958,11:38:15.737452,feet
12,125,feet1,4,cue,blue,-1,-1,-1,q,q,-1,0.23122116205831844,-1,1,none,none,-1,-1,-1,515382,26958,11:38:15.737452,feet
12,126,feet1,4,cue,blue,-1,-1,-1,q,q,-1,0.2570432162101497,-1,1,none,none,-1,-1,-1,518150,26958,11:38:15.737452,feet
12,127,feet1,4,cue,yellow,-1,-1,-1,c,c,-1,0.24198220725793362,-1,1,none,none,-1,-1,-1,520732,26958,11:38:15.737452,feet
12,128,feet1,4,gabor,0,0.010879720458874385,3,4,-1,c,0.37645303293811594,-1,0,-1,incongruent,miss,3,1,0.9706928171635809,523500,26958,11:38:15.737452,feet
12,129,feet1,4,cue,blue,-1,-1,-1,q,q,-1,0.2955397571931826,-1,1,none,none,-1,-1,-1,528198,26958,11:38:15.737452,feet
12,130,feet1,4,cue,blue,-1,-1,-1,q,q,-1,0.2702591344468601,-1,1,none,none,-1,-1,-1,530832,26958,11:38:15.737452,feet
12,131,feet1,4,gabor,0,0.010879720458874385,4,4,-1,q,0.44415768632916297,-1,1,-1,incongruent,hit,3,2,2.9500331770732373,533532,26958,11:38:15.737452,feet
12,132,feet1,4,gabor,90,0.010879720458874385,4,3,-1,q,0.5857124315716646,-1,0,-1,incongruent,FA,4,1,0.6026930260568406,540165,26958,11:38:15.737452,feet
12,133,feet1,4,cue,blue,-1,-1,-1,q,q,-1,0.3035072467337159,-1,1,none,none,-1,-1,-1,544799,26958,11:38:15.737452,feet
12,134,feet1,4,cue,yellow,-1,-1,-1,c,c,-1,0.31033773031958845,-1,1,none,none,-1,-1,-1,547632,26958,11:38:15.737452,feet
12,135,feet1,4,cue,blue,-1,-1,-1,q,q,-1,0.4332173159746162,-1,1,none,none,-1,-1,-1,550364,26958,11:38:15.737452,feet
12,136,feet1,4,cue,blue,-1,-1,-1,q,q,-1,0.2750774899704993,-1,1,none,none,-1,-1,-1,553332,26958,11:38:15.737452,feet
12,137,feet1,4,cue,yellow,-1,-1,-1,c,c,-1,0.25484139515720017,-1,1,none,none,-1,-1,-1,556031,26958,11:38:15.737452,feet
12,138,feet1,4,gabor,0,0.010879720458874385,3,4,-1,q,0.37768872532433306,-1,0,-1,congruent,miss,3,2,1.0426909064099164,558816,26958,11:38:15.737452,feet
12,139,feet1,4,cue,yellow,-1,-1,-1,c,c,-1,0.30142523177892144,-1,1,none,none,-1,-1,-1,563464,26958,11:38:15.737452,feet
12,140,feet1,4,cue,yellow,-1,-1,-1,c,c,-1,0.3161191425569996,-1,1,none,none,-1,-1,-1,566097,26958,11:38:15.737452,feet
12,141,feet1,4,gabor,0,0.010879720458874385,4,4,-1,q,0.5791315440237668,-1,1,-1,incongruent,hit,q,1,1.1600732353172134,568949,26958,11:38:15.737452,feet
12,142,feet1,4,cue,blue,-1,-1,-1,q,q,-1,0.2798178947305132,-1,1,none,none,-1,-1,-1,574014,26958,11:38:15.737452,feet
12,143,feet1,4,gabor,90,0.010879720458874385,3,3,-1,q,0.5106143595285175,-1,1,-1,congruent,CR,4,2,0.7596198153141813,576631,26958,11:38:15.737452,feet
12,144,feet1,4,cue,yellow,-1,-1,-1,c,c,-1,0.39538585243553825,-1,1,none,none,-1,-1,-1,581331,26958,11:38:15.737452,feet
12,145,feet1,5,cue,yellow,-1,-1,-1,c,c,-1,0.2277936324589973,-1,1,none,none,-1,-1,-1,591547,26958,11:38:15.737452,feet
12,146,feet1,5,cue,blue,-1,-1,-1,q,q,-1,0.2836993051250829,-1,1,none,none,-1,-1,-1,594146,26958,11:38:15.737452,feet
12,147,feet1,5,gabor,0,0.010879720458874385,4,4,-1,c,0.4844812703131538,-1,1,-1,congruent,hit,4,1,1.1044617019842917,596763,26958,11:38:15.737452,feet
12,148,feet1,5,gabor,0,0.010879720458874385,3,4,-1,q,0.5301212499152825,-1,0,-1,congruent,miss,q,2,1.0371974896006577,601696,26958,11:38:15.737452,feet
12,149,feet1,5,gabor,0,0.010879720458874385,4,4,-1,c,0.4900246063298255,-1,1,-1,congruent,hit,3,1,0.5499184396949204,606697,26958,11:38:15.737452,feet
12,150,feet1,5,cue,blue,-1,-1,-1,q,q,-1,0.46271764774519397,-1,1,none,none,-1,-1,-1,611080,26958,11:38:15.737452,feet
12,151,feet1,5,cue,yellow,-1,-1,-1,c,c,-1,0.24251135086069553,-1,1,none,none,-1,-1,-1,613979,26958,11:38:15.737452,feet
12,152,feet1,5,cue,yellow,-1,-1,-1,c,c,-1,0.2482102044077692,-1,1,none,none,-1,-1,-1,616645,26958,11:38:15.737452,feet
12,153,feet1,5,cue,yellow,-1,-1,-1,c,c,-1,0.26123950160672393,-1,1,none,none,-1,-1,-1,619328,26958,11:38:15.737452,feet
12,154,feet1,5,cue,yellow,-1,-1,-1,c,c,-1,0.25418054164674686,-1,1,none,none,-1,-1,-1,622114,26958,11:38:15.737452,feet
12,155,feet1,5,cue,blue,-1,-1,-1,q,q,-1,0.26286571579566953,-1,1,none,none,-1,-1,-1,624897,26958,11:38:15.737452,feet
12,156,feet1,5,cue,blue,-1,-1,-1,q,q,-1,0.2709146120432706,-1,1,none,none,-1,-1,-1,627697,26958,11:38:15.737452,feet
12,157,feet1,5,cue,yellow,-1,-1,-1,c,c,-1,0.3506125470776169,-1,1,none,none,-1,-1,-1,630496,26958,11:38:15.737452,feet
12,158,feet1,5,cue,blue,-1,-1,-1,c,q,-1,0.4234293113304375,-1,0,none,none,-1,-1,-1,633278,26958,11:38:15.737452,feet
12,159,feet1,5,cue,yellow,-1,-1,-1,c,c,-1,0.23723834655265819,-1,1,none,none,-1,-1,-1,636128,26958,11:38:15.737452,feet
12,160,feet1,5,cue,blue,-1,-1,-1,q,q,-1,0.20726608627228416,-1,1,none,none,-1,-1,-1,638696,26958,11:38:15.737452,feet
12,161,feet1,5,cue,blue,-1,-1,-1,q,q,-1,0.27287413294106955,-1,1,none,none,-1,-1,-1,644062,26958,11:38:15.737452,feet
12,162,feet1,5,cue,blue,-1,-1,-1,q,q,-1,0.3046158371371348,-1,1,none,none,-1,-1,-1,646662,26958,11:38:15.737452,feet
12,163,feet1,5,gabor,90,0.010879720458874385,3,3,-1,q,0.5415208769809396,-1,1,-1,congruent,CR,4,3,1.1414652746634601,649395,26958,11:38:15.737452,feet
12,164,feet1,5,cue,yellow,-1,-1,-1,c,c,-1,0.3233320840736269,-1,1,none,none,-1,-1,-1,654411,26958,11:38:15.737452,feet
12,165,feet1,5,gabor,0,0.010879720458874385,3,4,-1,q,0.5461856349411391,-1,0,-1,congruent,miss,c,1,3.8159613210618772,657263,26958,11:38:15.737452,feet
12,166,feet1,5,gabor,0,0.010879720458874385,4,4,-1,c,0.49959104649133224,-1,1,-1,congruent,hit,3,2,2.5945097319417982,664961,26958,11:38:15.737452,feet
12,167,feet1,5,gabor,90,0.010879720458874385,3,3,-1,c,0.4712442324116637,-1,1,-1,incongruent,CR,3,3,1.501270635832043,671494,26958,11:38:15.737452,feet
12,168,feet1,5,cue,yellow,-1,-1,-1,c,c,-1,0.27380378218640544,-1,1,none,none,-1,-1,-1,679644,26958,11:38:15.737452,feet
12,169,feet1,5,gabor,90,0.010879720458874385,3,3,-1,c,0.4905890773698047,-1,1,-1,incongruent,CR,c,2,1.1475907454396292,682445,26958,11:38:15.737452,feet
12,170,feet1,5,cue,yellow,-1,-1,-1,c,c,-1,0.2874205900607194,-1,1,none,none,-1,-1,-1,687326,26958,11:38:15.737452,feet
12,171,feet1,5,gabor,0,0.010879720458874385,3,4,-1,q,0.6633256636951046,-1,0,-1,congruent,miss,4,1,1.2282240896265648,690144,26958,11:38:15.737452,feet
12,172,feet1,5,cue,blue,-1,-1,-1,q,q,-1,0.2579014425882633,-1,1,none,none,-1,-1,-1,695478,26958,11:38:15.737452,feet
12,173,feet1,5,cue,blue,-1,-1,-1,q,q,-1,0.23372749027657846,-1,1,none,none,-1,-1,-1,698261,26958,11:38:15.737452,feet
12,174,feet1,5,gabor,90,0.010879720458874385,3,3,-1,q,0.5305812746137235,-1,1,-1,congruent,CR,q,2,1.1555229075411262,701027,26958,11:38:15.737452,feet
12,175,feet1,5,cue,blue,-1,-1,-1,q,q,-1,0.35132715973486484,-1,1,none,none,-1,-1,-1,706143,26958,11:38:15.737452,feet
12,176,feet1,5,cue,yellow,-1,-1,-1,c,c,-1,0.3002279387819726,-1,1,none,none,-1,-1,-1,709027,26958,11:38:15.737452,feet
12,177,feet1,5,gabor,90,0.010879720458874385,4,3,-1,c,0.46202031481334416,-1,0,-1,congruent,FA,3,2,0.8879048831740874,711861,26958,11:38:15.737452,feet
12,178,feet1,5,gabor,90,0.010879720458874385,3,3,-1,q,0.4464693296386031,-1,1,-1,congruent,CR,c,3,1.0576532289278475,716543,26958,11:38:15.737452,feet
12,179,feet1,5,cue,yellow,-1,-1,-1,c,c,-1,0.31327835564570705,-1,1,none,none,-1,-1,-1,721493,26958,11:38:15.737452,feet
12,180,feet1,5,cue,blue,-1,-1,-1,q,q,-1,0.5792663258853281,-1,1,none,none,-1,-1,-1,724242,26958,11:38:15.737452,feet
12,181,feet1,6,cue,yellow,-1,-1,-1,c,c,-1,0.3117761714884182,-1,1,none,none,-1,-1,-1,733358,26958,11:38:15.737452,feet
12,182,feet1,6,cue,yellow,-1,-1,-1,c,c,-1,0.2605798000768118,-1,1,none,none,-1,-1,-1,736025,26958,11:38:15.737452,feet
12,183,feet1,6,cue,blue,-1,-1,-1,q,q,-1,0.2934343186107071,-1,1,none,none,-1,-1,-1,738809,26958,11:38:15.737452,feet
12,184,feet1,6,cue,blue,-1,-1,-1,q,q,-1,0.25328122792052454,-1,1,none,none,-1,-1,-1,741626,26958,11:38:15.737452,feet
12,185,feet1,6,gabor,90,0.010879720458874385,3,3,-1,q,0.45012879155638075,-1,1,-1,congruent,CR,c,3,2.452998762003517,744309,26958,11:38:15.737452,feet
12,186,feet1,6,cue,yellow,-1,-1,-1,c,c,-1,0.3127223324709121,-1,1,none,none,-1,-1,-1,750541,26958,11:38:15.737452,feet
12,187,feet1,6,cue,yellow,-1,-1,-1,c,c,-1,0.2866072909691866,-1,1,none,none,-1,-1,-1,753393,26958,11:38:15.737452,feet
12,188,feet1,6,gabor,90,0.010879720458874385,4,3,-1,c,0.5324067816400202,-1,0,-1,congruent,FA,q,1,1.1852505637025388,756108,26958,11:38:15.737452,feet
12,189,feet1,6,cue,yellow,-1,-1,-1,c,c,-1,0.3802745402826986,-1,1,none,none,-1,-1,-1,761075,26958,11:38:15.737452,feet
12,190,feet1,6,cue,blue,-1,-1,-1,q,q,-1,0.3579283989602118,-1,1,none,none,-1,-1,-1,766824,26958,11:38:15.737452,feet
12,191,feet1,6,cue,blue,-1,-1,-1,q,q,-1,0.27065196021248994,-1,1,none,none,-1,-1,-1,769608,26958,11:38:15.737452,feet
12,192,feet1,6,cue,blue,-1,-1,-1,q,q,-1,0.3345116826303638,-1,1,none,none,-1,-1,-1,772207,26958,11:38:15.737452,feet
12,193,feet1,6,cue,blue,-1,-1,-1,q,q,-1,0.3563551759307302,-1,1,none,none,-1,-1,-1,774874,26958,11:38:15.737452,feet
12,194,feet1,6,gabor,0,0.010879720458874385,3,4,-1,c,0.5461925468316622,-1,0,-1,incongruent,miss,4,2,4.553086773406903,777657,26958,11:38:15.737452,feet
12,195,feet1,6,cue,yellow,-1,-1,-1,c,c,-1,0.2968084730564442,-1,1,none,none,-1,-1,-1,786191,26958,11:38:15.737452,feet
12,196,feet1,6,cue,blue,-1,-1,-1,q,q,-1,0.2625416249393311,-1,1,none,none,-1,-1,-1,788824,26958,11:38:15.737452,feet
12,197,feet1,6,cue,yellow,-1,-1,-1,c,c,-1,0.28641759798028943,-1,1,none,none,-1,-1,-1,791423,26958,11:38:15.737452,feet
12,198,feet1,6,cue,blue,-1,-1,-1,q,q,-1,0.32623123805751675,-1,1,none,none,-1,-1,-1,794040,26958,11:38:15.737452,feet
12,199,feet1,6,gabor,0,0.010879720458874385,3,4,-1,q,0.6031280911511203,-1,0,-1,congruent,miss,4,1,3.9960018554584167,796891,26958,11:38:15.737452,feet
12,200,feet1,6,gabor,90,0.010879720458874385,4,3,-1,q,0.46249761923809274,-1,0,-1,incongruent,FA,c,1,1.3816638302323554,804924,26958,11:38:15.737452,feet
12,201,feet1,6,cue,blue,-1,-1,-1,q,q,-1,0.4953026025568761,-1,1,none,none,-1,-1,-1,810207,26958,11:38:15.737452,feet
12,202,feet1,6,gabor,0,0.010879720458874385,4,4,-1,q,0.6752168029588574,-1,1,-1,incongruent,hit,4,2,0.8450999305741789,813140,26958,11:38:15.737452,feet
12,203,feet1,6,gabor,0,0.010879720458874385,3,4,-1,q,0.5959412612201049,-1,0,-1,congruent,miss,c,2,1.5457855132926852,817889,26958,11:38:15.737452,feet
12,204,feet1,6,cue,yellow,-1,-1,-1,c,c,-1,0.3215806878706644,-1,1,none,none,-1,-1,-1,823356,26958,11:38:15.737452,feet
12,205,feet1,6,cue,yellow,-1,-1,-1,c,c,-1,0.32041757033221074,-1,1,none,none,-1,-1,-1,826207,26958,11:38:15.737452,feet
12,206,feet1,6,cue,blue,-1,-1,-1,q,q,-1,0.3182341809870195,-1,1,none,none,-1,-1,-1,829056,26958,11:38:15.737452,feet
12,207,feet1,6,gabor,0,0.010879720458874385,4,4,-1,c,0.6541620331408922,-1,1,-1,congruent,hit,c,1,1.043121747571604,831806,26958,11:38:15.737452,feet
12,208,feet1,6,gabor,90,0.010879720458874385,3,3,-1,q,0.432778794935075,-1,1,-1,congruent,CR,3,3,1.2568485313004203,836940,26958,11:38:15.737452,feet
12,209,feet1,6,cue,yellow,-1,-1,-1,c,c,-1,0.3274884341035431,-1,1,none,none,-1,-1,-1,841855,26958,11:38:15.737452,feet
12,210,feet1,6,cue,yellow,-1,-1,-1,c,c,-1,0.3333051737799906,-1,1,none,none,-1,-1,-1,844706,26958,11:38:15.737452,feet
12,211,feet1,6,gabor,90,0.010879720458874385,3,3,-1,c,0.49724177177813544,-1,1,-1,incongruent,CR,3,2,1.395209215239447,847471,26958,11:38:15.737452,feet
12,212,feet1,6,gabor,0,0.010879720458874385,3,4,-1,c,0.6717819774767122,-1,0,-1,incongruent,miss,q,1,0.6628491272585961,852705,26958,11:38:15.737452,feet
12,213,feet1,6,cue,yellow,-1,-1,-1,c,c,-1,0.2786482492947471,-1,1,none,none,-1,-1,-1,857472,26958,11:38:15.737452,feet
12,214,feet1,6,gabor,90,0.010879720458874385,3,3,-1,c,0.5123968592370147,-1,1,-1,incongruent,CR,4,2,1.065393778069847,860289,26958,11:38:15.737452,feet
12,215,feet1,6,cue,blue,-1,-1,-1,q,q,-1,0.2732550548953441,-1,1,none,none,-1,-1,-1,865204,26958,11:38:15.737452,feet
12,216,feet1,6,cue,blue,-1,-1,-1,q,q,-1,0.3060930616911719,-1,1,none,none,-1,-1,-1,868006,26958,11:38:15.737452,feet
12,217,feet1,7,cue,blue,-1,-1,-1,q,q,-1,0.2373013215537867,-1,1,none,none,-1,-1,-1,882120,26958,11:38:15.737452,feet
12,218,feet1,7,gabor,0,0.010879720458874385,3,4,-1,q,0.6551331537266378,-1,0,-1,congruent,miss,c,1,0.8190432561450507,884837,26958,11:38:15.737452,feet
12,219,feet1,7,cue,yellow,-1,-1,-1,c,c,-1,0.27173597500586766,-1,1,none,none,-1,-1,-1,889654,26958,11:38:15.737452,feet
12,220,feet1,7,cue,blue,-1,-1,-1,q,q,-1,0.47265502601931075,-1,1,none,none,-1,-1,-1,892253,26958,11:38:15.737452,feet
12,221,feet1,7,cue,yellow,-1,-1,-1,c,c,-1,0.3084918716167522,-1,1,none,none,-1,-1,-1,895153,26958,11:38:15.737452,feet
12,222,feet1,7,cue,blue,-1,-1,-1,q,q,-1,0.3393043105616016,-1,1,none,none,-1,-1,-1,897786,26958,11:38:15.737452,feet
12,223,feet1,7,cue,blue,-1,-1,-1,q,q,-1,0.4692612878852742,-1,1,none,none,-1,-1,-1,900554,26958,11:38:15.737452,feet
12,224,feet1,7,gabor,90,0.010879720458874385,3,3,-1,q,0.5627503640262148,-1,1,-1,congruent,CR,c,2,4.188620494215684,907120,26958,11:38:15.737452,feet
12,225,feet1,7,gabor,90,0.010879720458874385,3,3,-1,q,0.5261803204657554,-1,1,-1,congruent,CR,q,3,0.99829852300536,915303,26958,11:38:15.737452,feet
12,226,feet1,7,cue,blue,-1,-1,-1,q,q,-1,0.28108622659965476,-1,1,none,none,-1,-1,-1,920070,26958,11:38:15.737452,feet
12,227,feet1,7,gabor,90,0.010879720458874385,3,3,-1,c,0.38749093774367793,-1,1,-1,incongruent,CR,q,2,1.3048101380536536,925619,26958,11:38:15.737452,feet
12,228,feet1,7,cue,yellow,-1,-1,-1,c,c,-1,0.33431277378713276,-1,1,none,none,-1,-1,-1,930535,26958,11:38:15.737452,feet
12,229,feet1,7,gabor,0,0.010879720458874385,3,4,-1,q,0.5932367921459445,-1,0,-1,congruent,miss,q,1,1.3363321977349187,933202,26958,11:38:15.737452,feet
12,230,feet1,7,cue,blue,-1,-1,-1,q,q,-1,0.5788777240531999,-1,1,none,none,-1,-1,-1,942252,26958,11:38:15.737452,feet
12,231,feet1,7,cue,yellow,-1,-1,-1,c,c,-1,0.45362966398988647,-1,1,none,none,-1,-1,-1,945169,26958,11:38:15.737452,feet
12,232,feet1,7,cue,blue,-1,-1,-1,q,q,-1,0.2784420445686919,-1,1,none,none,-1,-1,-1,948152,26958,11:38:15.737452,feet
12,233,feet1,7,cue,yellow,-1,-1,-1,c,c,-1,0.24524231551367848,-1,1,none,none,-1,-1,-1,950969,26958,11:38:15.737452,feet
12,234,feet1,7,gabor,0,0.010879720458874385,4,4,-1,q,0.48605602931820613,-1,1,-1,incongruent,hit,3,1,0.9601034172383152,953552,26958,11:38:15.737452,feet
12,235,feet1,7,cue,yellow,-1,-1,-1,c,c,-1,0.2759933154338796,-1,1,none,none,-1,-1,-1,958235,26958,11:38:15.737452,feet
12,236,feet1,7,cue,yellow,-1,-1,-1,c,c,-1,0.33971518404086964,-1,1,none,none,-1,-1,-1,961036,26958,11:38:15.737452,feet
12,237,feet1,7,cue,blue,-1,-1,-1,q,q,-1,0.2565513200179339,-1,1,none,none,-1,-1,-1,963701,26958,11:38:15.737452,feet
12,238,feet1,7,cue,blue,-1,-1,-1,q,q,-1,0.26940781995926955,-1,1,none,none,-1,-1,-1,966384,26958,11:38:15.737452,feet
12,239,feet1,7,cue,blue,-1,-1,-1,q,q,-1,0.253290827768069,-1,1,none,none,-1,-1,-1,969185,26958,11:38:15.737452,feet
12,240,feet1,7,cue,yellow,-1,-1,-1,c,c,-1,0.2422237394248441,-1,1,none,none,-1,-1,-1,971868,26958,11:38:15.737452,feet
12,241,feet1,7,gabor,0,0.010879720458874385,3,4,-1,c,0.5859451318783613,-1,0,-1,incongruent,miss,3,1,0.7078559009105447,974434,26958,11:38:15.737452,feet
12,242,feet1,7,cue,blue,-1,-1,-1,q,q,-1,0.27469503203974455,-1,1,none,none,-1,-1,-1,979067,26958,11:38:15.737452,feet
12,243,feet1,7,gabor,90,0.010879720458874385,3,3,-1,c,0.4544848184168586,-1,1,-1,incongruent,CR,4,2,1.6464460596080244,981667,26958,11:38:15.737452,feet
12,244,feet1,7,cue,blue,-1,-1,-1,q,q,-1,0.2621384313388262,-1,1,none,none,-1,-1,-1,987000,26958,11:38:15.737452,feet
12,245,feet1,7,gabor,0,0.010879720458874385,3,4,-1,c,0.3510257245197863,-1,0,-1,incongruent,miss,c,1,1.1561311538862356,989802,26958,11:38:15.737452,feet
12,246,feet1,7,gabor,90,0.010879720458874385,3,3,-1,c,0.33383815732122457,-1,1,-1,incongruent,CR,q,3,0.8907306943219737,994650,26958,11:38:15.737452,feet
12,247,feet1,7,cue,yellow,-1,-1,-1,c,c,-1,0.36945013608783484,-1,1,none,none,-1,-1,-1,999117,26958,11:38:15.737452,feet
12,248,feet1,7,cue,yellow,-1,-1,-1,c,c,-1,0.3174024501877284,-1,1,none,none,-1,-1,-1,1001816,26958,11:38:15.737452,feet
12,249,feet1,7,cue,yellow,-1,-1,-1,c,c,-1,0.23131063263735996,-1,1,none,none,-1,-1,-1,1004566,26958,11:38:15.737452,feet
12,250,feet1,7,gabor,0,0.010879720458874385,4,4,-1,c,0.5470876366252924,-1,1,-1,congruent,hit,q,2,2.1999740420114904,1007335,26958,11:38:15.737452,feet
12,251,feet1,7,cue,yellow,-1,-1,-1,c,c,-1,0.28970996172301966,-1,1,none,none,-1,-1,-1,1013517,26958,11:38:15.737452,feet
12,252,feet1,7,gabor,90,0.010879720458874385,3,3,-1,q,0.33254755380494316,-1,1,-1,congruent,CR,c,3,3.2175363872620437,1016133,26958,11:38:15.737452,feet
12,253,feet1,8,cue,yellow,-1,-1,-1,c,c,-1,0.34718693744889606,-1,1,none,none,-1,-1,-1,1042115,26958,11:38:15.737452,feet
12,254,feet1,8,gabor,90,0.010879720458874385,3,3,-1,q,0.31289896966700326,-1,1,-1,congruent,CR,3,2,0.9357535957196887,1044965,26958,11:38:15.737452,feet
12,255,feet1,8,gabor,0,0.010879720458874385,3,4,-1,c,0.3944638830689655,-1,0,-1,incongruent,miss,c,1,1.7683410848903804,1052298,26958,11:38:15.737452,feet
12,256,feet1,8,gabor,90,0.010879720458874385,3,3,-1,c,0.45331824493314343,-1,1,-1,incongruent,CR,4,1,1.0080634880159778,1057798,26958,11:38:15.737452,feet
12,257,feet1,8,gabor,90,0.010879720458874385,4,3,-1,q,0.4246899633208159,-1,0,-1,incongruent,FA,3,1,1.2036811191737797,1065331,26958,11:38:15.737452,feet
12,258,feet1,8,cue,blue,-1,-1,-1,q,q,-1,0.28049334000934323,-1,1,none,none,-1,-1,-1,1070197,26958,11:38:15.737452,feet
12,259,feet1,8,cue,blue,-1,-1,-1,q,q,-1,0.36435492095915833,-1,1,none,none,-1,-1,-1,1072914,26958,11:38:15.737452,feet
12,260,feet1,8,cue,blue,-1,-1,-1,q,q,-1,0.2921878743936759,-1,1,none,none,-1,-1,-1,1075715,26958,11:38:15.737452,feet
12,261,feet1,8,cue,blue,-1,-1,-1,q,q,-1,0.29906328526794823,-1,1,none,none,-1,-1,-1,1078532,26958,11:38:15.737452,feet
12,262,feet1,8,gabor,90,0.010879720458874385,4,3,-1,c,0.5158167089566632,-1,0,-1,congruent,FA,c,3,2.181696316115449,1081264,26958,11:38:15.737452,feet
12,263,feet1,8,gabor,90,0.010879720458874385,3,3,-1,c,0.4164913094500662,-1,1,-1,incongruent,CR,c,2,1.2764214686385458,1087213,26958,11:38:15.737452,feet
12,264,feet1,8,cue,blue,-1,-1,-1,q,q,-1,0.2992456823722023,-1,1,none,none,-1,-1,-1,1092331,26958,11:38:15.737452,feet
12,265,feet1,8,cue,blue,-1,-1,-1,q,q,-1,0.2541820776223176,-1,1,none,none,-1,-1,-1,1095064,26958,11:38:15.737452,feet
12,266,feet1,8,gabor,0,0.010879720458874385,3,4,-1,c,0.5566744284633387,-1,0,-1,incongruent,miss,3,4,0.17171631451856229,1100680,26958,11:38:15.737452,feet
12,267,feet1,8,cue,yellow,-1,-1,-1,c,c,-1,0.2154643561498233,-1,1,none,none,-1,-1,-1,1104847,26958,11:38:15.737452,feet
12,268,feet1,8,cue,blue,-1,-1,-1,q,q,-1,0.26538586779588513,-1,1,none,none,-1,-1,-1,1107597,26958,11:38:15.737452,feet
12,269,feet1,8,gabor,90,0.010879720458874385,3,3,-1,q,0.3212258775029113,-1,1,-1,congruent,CR,q,4,1.0891330492795532,1110398,26958,11:38:15.737452,feet
12,270,feet1,8,gabor,0,0.010879720458874385,3,4,-1,q,0.6776854997751798,-1,0,-1,congruent,miss,3,4,0.8136308620514683,1117879,26958,11:38:15.737452,feet
12,271,feet1,8,cue,yellow,-1,-1,-1,c,c,-1,0.2734808433115177,-1,1,none,none,-1,-1,-1,1122797,26958,11:38:15.737452,feet
12,272,feet1,8,cue,blue,-1,-1,-1,q,q,-1,0.27434214164168225,-1,1,none,none,-1,-1,-1,1125396,26958,11:38:15.737452,feet
12,273,feet1,8,cue,yellow,-1,-1,-1,c,c,-1,0.2502561239343777,-1,1,none,none,-1,-1,-1,1128197,26958,11:38:15.737452,feet
12,274,feet1,8,cue,blue,-1,-1,-1,q,q,-1,0.30712446932102466,-1,1,none,none,-1,-1,-1,1130779,26958,11:38:15.737452,feet
12,275,feet1,8,gabor,0,0.010879720458874385,3,4,-1,q,0.4837885453080162,-1,0,-1,congruent,miss,q,2,1.1947939642304846,1133412,26958,11:38:15.737452,feet
12,276,feet1,8,cue,yellow,-1,-1,-1,c,c,-1,0.28560199492494576,-1,1,none,none,-1,-1,-1,1138530,26958,11:38:15.737452,feet
12,277,feet1,8,cue,yellow,-1,-1,-1,c,c,-1,0.3454708686867889,-1,1,none,none,-1,-1,-1,1141245,26958,11:38:15.737452,feet
12,278,feet1,8,cue,blue,-1,-1,-1,q,q,-1,0.26223558179754036,-1,1,none,none,-1,-1,-1,1143912,26958,11:38:15.737452,feet
12,279,feet1,8,gabor,0,0.010879720458874385,3,4,-1,c,0.2520731830945806,-1,0,-1,incongruent,miss,q,1,1.1850961981535875,1146513,26958,11:38:15.737452,feet
12,280,feet1,8,cue,yellow,-1,-1,-1,c,c,-1,0.24684241811792162,-1,1,none,none,-1,-1,-1,1151295,26958,11:38:15.737452,feet
12,281,feet1,8,cue,blue,-1,-1,-1,q,q,-1,0.28368048942320456,-1,1,none,none,-1,-1,-1,1153979,26958,11:38:15.737452,feet
12,282,feet1,8,cue,yellow,-1,-1,-1,c,c,-1,0.4356368615717656,-1,1,none,none,-1,-1,-1,1156796,26958,11:38:15.737452,feet
12,283,feet1,8,cue,blue,-1,-1,-1,q,q,-1,0.30032739320358814,-1,1,none,none,-1,-1,-1,1159762,26958,11:38:15.737452,feet
12,284,feet1,8,gabor,0,0.010879720458874385,4,4,-1,q,0.6322302212420254,-1,1,-1,incongruent,hit,q,2,1.2741178892010794,1162494,26958,11:38:15.737452,feet
12,285,feet1,8,cue,yellow,-1,-1,-1,c,c,-1,0.31977207657746476,-1,1,none,none,-1,-1,-1,1170478,26958,11:38:15.737452,feet
12,286,feet1,8,cue,yellow,-1,-1,-1,c,c,-1,0.22256248348821828,-1,1,none,none,-1,-1,-1,1173329,26958,11:38:15.737452,feet
12,287,feet1,8,cue,yellow,-1,-1,-1,c,c,-1,0.22442677389881283,-1,1,none,none,-1,-1,-1,1176078,26958,11:38:15.737452,feet
12,288,feet1,8,cue,yellow,-1,-1,-1,c,c,-1,0.23820485921260115,-1,1,none,none,-1,-1,-1,1178727,26958,11:38:15.737452,feet
12,289,feet1,9,cue,yellow,-1,-1,-1,c,c,-1,0.27679471071405715,-1,1,none,none,-1,-1,-1,1186777,26958,11:38:15.737452,feet
12,290,feet1,9,cue,yellow,-1,-1,-1,c,c,-1,0.3447128647176214,-1,1,none,none,-1,-1,-1,1189494,26958,11:38:15.737452,feet
12,291,feet1,9,gabor,90,0.010879720458874385,4,3,-1,c,0.50649871285259,-1,0,-1,congruent,FA,q,1,0.8944562031911119,1192160,26958,11:38:15.737452,feet
12,292,feet1,9,cue,yellow,-1,-1,-1,c,c,-1,0.26826889403582754,-1,1,none,none,-1,-1,-1,1196994,26958,11:38:15.737452,feet
12,293,feet1,9,gabor,0,0.010879720458874385,4,4,-1,c,0.6411576955451892,-1,1,-1,congruent,hit,3,2,4.525976803696722,1199795,26958,11:38:15.737452,feet
12,294,feet1,9,cue,blue,-1,-1,-1,q,q,-1,0.2646320877593098,-1,1,none,none,-1,-1,-1,1208293,26958,11:38:15.737452,feet
12,295,feet1,9,gabor,90,0.010879720458874385,3,3,-1,c,0.49737770562114747,-1,1,-1,incongruent,CR,c,3,1.7533795303606894,1210893,26958,11:38:15.737452,feet
12,296,feet1,9,gabor,0,0.010879720458874385,3,4,-1,c,0.49721258824138204,-1,0,-1,incongruent,miss,q,3,0.7500752628047849,1216594,26958,11:38:15.737452,feet
12,297,feet1,9,cue,blue,-1,-1,-1,q,q,-1,0.24996812850622518,-1,1,none,none,-1,-1,-1,1221094,26958,11:38:15.737452,feet
12,298,feet1,9,gabor,90,0.010879720458874385,3,3,-1,q,0.6346893182108033,-1,1,-1,congruent,CR,4,2,1.1285968709098597,1223676,26958,11:38:15.737452,feet
12,299,feet1,9,cue,yellow,-1,-1,-1,c,c,-1,0.3835131448795437,-1,1,none,none,-1,-1,-1,1228759,26958,11:38:15.737452,feet
12,300,feet1,9,gabor,90,0.010879720458874385,4,3,-1,q,0.3752614998484205,-1,0,-1,incongruent,FA,c,3,1.2682919336693885,1231575,26958,11:38:15.737452,feet
12,301,feet1,9,cue,blue,-1,-1,-1,q,q,-1,0.27387213310066727,-1,1,none,none,-1,-1,-1,1239292,26958,11:38:15.737452,feet
12,302,feet1,9,cue,blue,-1,-1,-1,q,q,-1,0.22671576156790252,-1,1,none,none,-1,-1,-1,1242093,26958,11:38:15.737452,feet
12,303,feet1,9,cue,yellow,-1,-1,-1,c,c,-1,0.1794979510086705,-1,1,none,none,-1,-1,-1,1244843,26958,11:38:15.737452,feet
12,304,feet1,9,gabor,90,0.010879720458874385,4,3,-1,c,0.5342879677809833,-1,0,-1,congruent,FA,3,2,0.8942864778837247,1247560,26958,11:38:15.737452,feet
12,305,feet1,9,cue,yellow,-1,-1,-1,c,c,-1,0.39716374421732326,-1,1,none,none,-1,-1,-1,1252426,26958,11:38:15.737452,feet
12,306,feet1,9,cue,yellow,-1,-1,-1,c,c,-1,0.24279627433679707,-1,1,none,none,-1,-1,-1,1258091,26958,11:38:15.737452,feet
12,307,feet1,9,cue,blue,-1,-1,-1,q,q,-1,0.30757259020720085,-1,1,none,none,-1,-1,-1,1260859,26958,11:38:15.737452,feet
12,308,feet1,9,cue,blue,-1,-1,-1,q,q,-1,0.2104267401064135,-1,1,none,none,-1,-1,-1,1263491,26958,11:38:15.737452,feet
12,309,feet1,9,cue,blue,-1,-1,-1,q,q,-1,0.1971812543397391,-1,1,none,none,-1,-1,-1,1266024,26958,11:38:15.737452,feet
12,310,feet1,9,gabor,0,0.010879720458874385,4,4,-1,q,0.556037382575596,-1,1,-1,incongruent,hit,3,1,0.92807755755166,1268759,26958,11:38:15.737452,feet
12,311,feet1,9,cue,yellow,-1,-1,-1,c,c,-1,0.2958569361580885,-1,1,none,none,-1,-1,-1,1273575,26958,11:38:15.737452,feet
12,312,feet1,9,gabor,0,0.010879720458874385,3,4,-1,c,0.4396526698328671,-1,0,-1,incongruent,miss,q,2,1.1216573330548272,1276208,26958,11:38:15.737452,feet
12,313,feet1,9,gabor,0,0.010879720458874385,4,4,-1,q,0.6743005935022666,-1,1,-1,incongruent,hit,q,1,1.4403711224294966,1281208,26958,11:38:15.737452,feet
12,314,feet1,9,cue,blue,-1,-1,-1,q,q,-1,0.2971137482109043,-1,1,none,none,-1,-1,-1,1286759,26958,11:38:15.737452,feet
12,315,feet1,9,cue,yellow,-1,-1,-1,c,c,-1,0.28578477602422936,-1,1,none,none,-1,-1,-1,1292224,26958,11:38:15.737452,feet
12,316,feet1,9,cue,yellow,-1,-1,-1,c,c,-1,0.25372090094242594,-1,1,none,none,-1,-1,-1,1295041,26958,11:38:15.737452,feet
12,317,feet1,9,gabor,90,0.010879720458874385,3,3,-1,q,0.22646386156702647,-1,1,-1,congruent,CR,c,3,2.186446320723917,1297623,26958,11:38:15.737452,feet
12,318,feet1,9,cue,blue,-1,-1,-1,q,q,-1,0.21222613554709824,-1,1,none,none,-1,-1,-1,1303475,26958,11:38:15.737452,feet
12,319,feet1,9,cue,yellow,-1,-1,-1,c,c,-1,0.2310863801958476,-1,1,none,none,-1,-1,-1,1306024,26958,11:38:15.737452,feet
12,320,feet1,9,gabor,0,0.010879720458874385,3,4,-1,q,0.3999027727440989,-1,0,-1,congruent,miss,4,3,1.405848918366246,1308590,26958,11:38:15.737452,feet
12,321,feet1,9,cue,yellow,-1,-1,-1,c,c,-1,0.2945651806621754,-1,1,none,none,-1,-1,-1,1313840,26958,11:38:15.737452,feet
12,322,feet1,9,cue,blue,-1,-1,-1,q,q,-1,0.2653789559044526,-1,1,none,none,-1,-1,-1,1316556,26958,11:38:15.737452,feet
12,323,feet1,9,cue,blue,-1,-1,-1,q,q,-1,0.23323367411467189,-1,1,none,none,-1,-1,-1,1319357,26958,11:38:15.737452,feet
12,324,feet1,9,cue,blue,-1,-1,-1,q,q,-1,0.23913182050091564,-1,1,none,none,-1,-1,-1,1322023,26958,11:38:15.737452,feet
12,325,feet1,10,cue,yellow,-1,-1,-1,c,c,-1,0.3053772970524733,-1,1,none,none,-1,-1,-1,1333972,26958,11:38:15.737452,feet
12,326,feet1,10,cue,yellow,-1,-1,-1,c,c,-1,0.27934404625011666,-1,1,none,none,-1,-1,-1,1336638,26958,11:38:15.737452,feet
12,327,feet1,10,cue,blue,-1,-1,-1,q,q,-1,0.5460961643602786,-1,1,none,none,-1,-1,-1,1339356,26958,11:38:15.737452,feet
12,328,feet1,10,cue,blue,-1,-1,-1,q,q,-1,0.2696961993824516,-1,1,none,none,-1,-1,-1,1345072,26958,11:38:15.737452,feet
12,329,feet1,10,cue,blue,-1,-1,-1,q,q,-1,0.2706972714931908,-1,1,none,none,-1,-1,-1,1347873,26958,11:38:15.737452,feet
12,330,feet1,10,gabor,90,0.010879720458874385,3,3,-1,c,0.6574689886529086,-1,1,-1,incongruent,CR,c,2,1.848361574804585,1350673,26958,11:38:15.737452,feet
12,331,feet1,10,cue,yellow,-1,-1,-1,c,c,-1,0.26424502190275234,-1,1,none,none,-1,-1,-1,1356623,26958,11:38:15.737452,feet
12,332,feet1,10,cue,yellow,-1,-1,-1,c,c,-1,0.2508374907083635,-1,1,none,none,-1,-1,-1,1362155,26958,11:38:15.737452,feet
12,333,feet1,10,gabor,0,0.010879720458874385,3,4,-1,c,0.4806010119009443,-1,0,-1,incongruent,miss,c,2,1.4375829426826385,1364738,26958,11:38:15.737452,feet
12,334,feet1,10,gabor,0,0.010879720458874385,4,4,-1,c,0.6862942591378669,-1,1,-1,congruent,hit,q,1,1.2752779347883916,1369988,26958,11:38:15.737452,feet
12,335,feet1,10,cue,blue,-1,-1,-1,q,q,-1,0.25583325141451496,-1,1,none,none,-1,-1,-1,1379054,26958,11:38:15.737452,feet
12,336,feet1,10,cue,yellow,-1,-1,-1,c,c,-1,0.3367856945369567,-1,1,none,none,-1,-1,-1,1381839,26958,11:38:15.737452,feet
12,337,feet1,10,gabor,0,0.010879720458874385,3,4,-1,q,0.598454501330707,-1,0,-1,congruent,miss,c,1,0.982426902921361,1384604,26958,11:38:15.737452,feet
12,338,feet1,10,cue,yellow,-1,-1,-1,c,c,-1,0.30027440204503364,-1,1,none,none,-1,-1,-1,1389537,26958,11:38:15.737452,feet
12,339,feet1,10,cue,blue,-1,-1,-1,q,q,-1,0.2750993776226096,-1,1,none,none,-1,-1,-1,1392372,26958,11:38:15.737452,feet
12,340,feet1,10,gabor,0,0.010879720458874385,3,4,-1,q,0.5797271185729187,-1,0,-1,congruent,miss,c,1,0.8236596308743174,1398004,26958,11:38:15.737452,feet
12,341,feet1,10,gabor,0,0.010879720458874385,4,4,-1,q,0.6424897704036994,-1,1,-1,incongruent,hit,4,1,0.8384007729036966,1402737,26958,11:38:15.737452,feet
12,342,feet1,10,cue,blue,-1,-1,-1,q,q,-1,0.2653102209951612,-1,1,none,none,-1,-1,-1,1407655,26958,11:38:15.737452,feet
12,343,feet1,10,cue,yellow,-1,-1,-1,c,c,-1,0.24109594932451728,-1,1,none,none,-1,-1,-1,1410455,26958,11:38:15.737452,feet
12,344,feet1,10,cue,yellow,-1,-1,-1,c,c,-1,0.1607552084933559,-1,1,none,none,-1,-1,-1,1415853,26958,11:38:15.737452,feet
12,345,feet1,10,cue,blue,-1,-1,-1,q,q,-1,0.23658210096800758,-1,1,none,none,-1,-1,-1,1418353,26958,11:38:15.737452,feet
12,346,feet1,10,gabor,90,0.010879720458874385,3,3,-1,q,0.5624013135675341,-1,1,-1,congruent,CR,c,2,1.2202327924642304,1421121,26958,11:38:15.737452,feet
12,347,feet1,10,cue,blue,-1,-1,-1,q,q,-1,0.6301616460732475,-1,1,none,none,-1,-1,-1,1426338,26958,11:38:15.737452,feet
12,348,feet1,10,gabor,90,0.010879720458874385,3,3,-1,q,0.41774159360466,-1,1,-1,congruent,CR,q,2,1.0736888144110708,1432336,26958,11:38:15.737452,feet
12,349,feet1,10,gabor,0,0.010879720458874385,3,4,-1,c,0.7664906182599225,-1,0,-1,incongruent,miss,q,2,1.1263743141862506,1437270,26958,11:38:15.737452,feet
12,350,feet1,10,cue,yellow,-1,-1,-1,c,c,-1,0.2712125913149066,-1,1,none,none,-1,-1,-1,1442503,26958,11:38:15.737452,feet
12,351,feet1,10,cue,yellow,-1,-1,-1,c,c,-1,0.28013008177549636,-1,1,none,none,-1,-1,-1,1445304,26958,11:38:15.737452,feet
12,352,feet1,10,gabor,90,0.010879720458874385,3,3,-1,q,0.4648388300774968,-1,1,-1,congruent,CR,q,3,1.0738404920030007,1448121,26958,11:38:15.737452,feet
12,353,feet1,10,cue,blue,-1,-1,-1,q,q,-1,0.5855703538272792,-1,1,none,none,-1,-1,-1,1453086,26958,11:38:15.737452,feet
12,354,feet1,10,gabor,90,0.010879720458874385,3,3,-1,c,0.5103782032765594,-1,1,-1,incongruent,CR,c,3,0.9723770144337323,1456002,26958,11:38:15.737452,feet
12,355,feet1,10,cue,blue,-1,-1,-1,q,q,-1,0.25920740586116153,-1,1,none,none,-1,-1,-1,1460819,26958,11:38:15.737452,feet
12,356,feet1,10,cue,blue,-1,-1,-1,q,q,-1,0.22910381966539717,-1,1,none,none,-1,-1,-1,1463603,26958,11:38:15.737452,feet
12,357,feet1,10,gabor,90,0.010879720458874385,3,3,-1,c,0.5729315784301434,-1,1,-1,incongruent,CR,q,1,0.7477739873320388,1466370,26958,11:38:15.737452,feet
12,358,feet1,10,cue,yellow,-1,-1,-1,c,c,-1,0.24367869233174133,-1,1,none,none,-1,-1,-1,1471035,26958,11:38:15.737452,feet
12,359,feet1,10,cue,yellow,-1,-1,-1,c,c,-1,0.2884416298529686,-1,1,none,none,-1,-1,-1,1473701,26958,11:38:15.737452,feet
12,360,feet1,10,cue,blue,-1,-1,-1,q,q,-1,0.26423772601810924,-1,1,none,none,-1,-1,-1,1476318,26958,11:38:15.737452,feet
12,361,feet1,11,cue,blue,-1,-1,-1,q,q,-1,0.07203648863651324,-1,1,none,none,-1,-1,-1,1481518,26958,11:38:15.737452,feet
12,362,feet1,11,cue,blue,-1,-1,-1,q,q,-1,0.23176297745885677,-1,1,none,none,-1,-1,-1,1483935,26958,11:38:15.737452,feet
12,363,feet1,11,cue,blue,-1,-1,-1,q,q,-1,0.2565559279428271,-1,1,none,none,-1,-1,-1,1486501,26958,11:38:15.737452,feet
12,364,feet1,11,cue,yellow,-1,-1,-1,c,c,-1,0.24151181472370808,-1,1,none,none,-1,-1,-1,1489084,26958,11:38:15.737452,feet
12,365,feet1,11,gabor,90,0.010879720458874385,3,3,-1,q,0.3522725527309376,-1,1,-1,congruent,CR,3,2,1.078272165663293,1491750,26958,11:38:15.737452,feet
12,366,feet1,11,cue,blue,-1,-1,-1,q,q,-1,0.27727739105466753,-1,1,none,none,-1,-1,-1,1496618,26958,11:38:15.737452,feet
12,367,feet1,11,cue,yellow,-1,-1,-1,c,c,-1,0.28107547476975014,-1,1,none,none,-1,-1,-1,1499317,26958,11:38:15.737452,feet
12,368,feet1,11,gabor,90,0.010879720458874385,4,3,-1,c,0.5917557276534353,-1,0,-1,congruent,FA,q,1,1.037728553172201,1501934,26958,11:38:15.737452,feet
12,369,feet1,11,cue,yellow,-1,-1,-1,c,c,-1,0.24147802325933299,-1,1,none,none,-1,-1,-1,1506900,26958,11:38:15.737452,feet
12,370,feet1,11,gabor,0,0.010879720458874385,4,4,-1,q,0.48229864895620267,-1,1,-1,incongruent,hit,c,2,0.824285924934884,1509566,26958,11:38:15.737452,feet
12,371,feet1,11,cue,yellow,-1,-1,-1,c,c,-1,0.2537781160335726,-1,1,none,none,-1,-1,-1,1520616,26958,11:38:15.737452,feet
12,372,feet1,11,cue,yellow,-1,-1,-1,c,c,-1,0.28660575499270635,-1,1,none,none,-1,-1,-1,1523200,26958,11:38:15.737452,feet
12,373,feet1,11,cue,blue,-1,-1,-1,q,q,-1,0.2933651997082052,-1,1,none,none,-1,-1,-1,1526017,26958,11:38:15.737452,feet
12,374,feet1,11,cue,blue,-1,-1,-1,q,q,-1,0.22934919176987023,-1,1,none,none,-1,-1,-1,1528833,26958,11:38:15.737452,feet
12,375,feet1,11,gabor,90,0.010879720458874385,3,3,-1,q,0.5431075397973473,-1,1,-1,congruent,CR,q,2,5.397976275318797,1531601,26958,11:38:15.737452,feet
12,376,feet1,11,gabor,0,0.010879720458874385,3,4,-1,q,0.4125357882330718,-1,0,-1,congruent,miss,q,2,0.7875023807628168,1540983,26958,11:38:15.737452,feet
12,377,feet1,11,cue,yellow,-1,-1,-1,c,c,-1,0.29330145671883656,-1,1,none,none,-1,-1,-1,1545633,26958,11:38:15.737452,feet
12,378,feet1,11,cue,blue,-1,-1,-1,q,q,-1,0.22533146353998745,-1,1,none,none,-1,-1,-1,1548366,26958,11:38:15.737452,feet
12,379,feet1,11,gabor,0,0.010879720458874385,4,4,-1,c,0.587807118326964,-1,1,-1,congruent,hit,q,1,0.753754692404982,1554682,26958,11:38:15.737452,feet
12,380,feet1,11,gabor,90,0.010879720458874385,3,3,-1,c,0.40752505176351406,-1,1,-1,incongruent,CR,4,2,0.952458098585339,1559365,26958,11:38:15.737452,feet
12,381,feet1,11,cue,blue,-1,-1,-1,q,q,-1,0.2092766783607658,-1,1,none,none,-1,-1,-1,1564165,26958,11:38:15.737452,feet
12,382,feet1,11,cue,yellow,-1,-1,-1,c,c,-1,0.300296673691264,-1,1,none,none,-1,-1,-1,1566900,26958,11:38:15.737452,feet
12,383,feet1,11,cue,blue,-1,-1,-1,q,q,-1,0.23676910600079282,-1,1,none,none,-1,-1,-1,1572465,26958,11:38:15.737452,feet
12,384,feet1,11,gabor,0,0.010879720458874385,3,4,-1,c,0.49455765438142407,-1,0,-1,incongruent,miss,3,2,5.552427839864322,1575232,26958,11:38:15.737452,feet
12,385,feet1,11,gabor,90,0.010879720458874385,3,3,-1,q,0.3919805944842665,-1,1,-1,congruent,CR,q,2,0.8487828161196376,1584515,26958,11:38:15.737452,feet
12,386,feet1,11,gabor,0,0.010879720458874385,3,4,-1,q,0.6757409546407871,-1,0,-1,congruent,miss,c,1,1.2307273458955024,1589098,26958,11:38:15.737452,feet
12,387,feet1,11,cue,blue,-1,-1,-1,q,q,-1,0.5865495382859081,-1,1,none,none,-1,-1,-1,1594347,26958,11:38:15.737452,feet
12,388,feet1,11,cue,yellow,-1,-1,-1,c,c,-1,0.30236217690799094,-1,1,none,none,-1,-1,-1,1597465,26958,11:38:15.737452,feet
12,389,feet1,11,cue,yellow,-1,-1,-1,c,c,-1,0.34125922353268834,-1,1,none,none,-1,-1,-1,1600299,26958,11:38:15.737452,feet
12,390,feet1,11,cue,yellow,-1,-1,-1,c,c,-1,0.24999654405473848,-1,1,none,none,-1,-1,-1,1602964,26958,11:38:15.737452,feet
12,391,feet1,11,cue,blue,-1,-1,-1,q,q,-1,0.2217184648852708,-1,1,none,none,-1,-1,-1,1608480,26958,11:38:15.737452,feet
12,392,feet1,11,gabor,0,0.010879720458874385,3,4,-1,c,0.30144788741927186,-1,0,-1,incongruent,miss,4,2,1.0975260040668218,1611231,26958,11:38:15.737452,feet
12,393,feet1,11,cue,yellow,-1,-1,-1,c,c,-1,0.31826835644460516,-1,1,none,none,-1,-1,-1,1616081,26958,11:38:15.737452,feet
12,394,feet1,11,gabor,90,0.010879720458874385,3,3,-1,c,0.5562001959915506,-1,1,-1,incongruent,CR,q,1,0.611094812702504,1618931,26958,11:38:15.737452,feet
12,395,feet1,11,cue,yellow,-1,-1,-1,c,c,-1,0.2318850875199132,-1,1,none,none,-1,-1,-1,1623430,26958,11:38:15.737452,feet
12,396,feet1,11,cue,blue,-1,-1,-1,q,q,-1,0.25373357274111186,-1,1,none,none,-1,-1,-1,1626096,26958,11:38:15.737452,feet
