start	accuracy_gabor	delta	orientation	pressed_gabor	expected_gabor	rt_gabor	trial	participant	response condition	date	expName	
0.0005	1	0.0005	90	3	3	0.40073281931540805	0	8	8	2021_Apr_14_1148	Motor	
0.0425	1	0.0425	0	4	4	0.2773500694459017	1	8	8	2021_Apr_14_1148	Motor	
0.0425	1	0.038000000000000006	0	4	4	0.350169668945	2	8	8	2021_Apr_14_1148	Motor	
0.0005	0	0.0005	90	4	3	0.31715785605433666	3	8	8	2021_Apr_14_1148	Motor	
0.0425	1	0.03350000000000001	90	3	3	0.41795276763696165	4	8	8	2021_Apr_14_1148	Motor	
0.0005	0	0.004999999999999999	0	3	4	0.48260552517513133	5	8	8	2021_Apr_14_1148	Motor	
0.0005	0	0.009499999999999998	90	4	3	0.46928583140470437	6	8	8	2021_Apr_14_1148	Motor	
0.0425	0	0.02900000000000001	0	3	4	0.362212189668071	7	8	8	2021_Apr_14_1148	Motor	
0.0005	1	0.013999999999999999	0	4	4	0.3540829793842022	8	8	8	2021_Apr_14_1148	Motor	
0.0425	1	0.03350000000000001	90	3	3	0.3178601860311119	9	8	8	2021_Apr_14_1148	Motor	
0.0425	1	0.03350000000000001	90	3	3	0.517609128984077	10	8	8	2021_Apr_14_1148	Motor	
0.0005	0	0.013999999999999999	90	4	3	0.3703540718433942	11	8	8	2021_Apr_14_1148	Motor	
0.0005	1	0.0185	0	4	4	0.3152739682104766	12	8	8	2021_Apr_14_1148	Motor	
0.0425	1	0.03350000000000001	90	3	3	3.470827962179328	13	8	8	2021_Apr_14_1148	Motor	
0.0005	0	0.0185	0	3	4	0.3675009763117032	14	8	8	2021_Apr_14_1148	Motor	
0.0425	0	0.02900000000000001	90	4	3	0.30833169174729846	15	8	8	2021_Apr_14_1148	Motor	
0.0005	1	0.023	0	4	4	0.3701636094767764	16	8	8	2021_Apr_14_1148	Motor	
0.0425	1	0.03350000000000001	90	3	3	2.3178348422484305	17	8	8	2021_Apr_14_1148	Motor	
0.0425	0	0.03350000000000001	90	4	3	0.4255881581559606	18	8	8	2021_Apr_14_1148	Motor	
0.0005	1	0.023	0	4	4	0.41737600458327506	19	8	8	2021_Apr_14_1148	Motor	
0.0425	1	0.038000000000000006	0	4	4	0.44315255152378086	20	8	8	2021_Apr_14_1148	Motor	
0.0005	1	0.023	90	3	3	0.5019036636740566	21	8	8	2021_Apr_14_1148	Motor	
0.0005	1	0.0185	90	3	3	0.5917009095730918	22	8	8	2021_Apr_14_1148	Motor	
0.0425	1	0.038000000000000006	90	3	3	0.3895569791593516	23	8	8	2021_Apr_14_1148	Motor	
0.0005	1	0.0185	90	3	3	0.39733560044987826	24	8	8	2021_Apr_14_1148	Motor	
0.0425	1	0.038000000000000006	90	3	3	0.43521725957680246	25	8	8	2021_Apr_14_1148	Motor	
0.0425	1	0.03350000000000001	0	4	4	0.36576415920649197	26	8	8	2021_Apr_14_1148	Motor	
0.0005	1	0.0185	0	4	4	0.4957823721704244	27	8	8	2021_Apr_14_1148	Motor	
0.0005	1	0.013999999999999999	0	4	4	0.44150789362834075	28	8	8	2021_Apr_14_1148	Motor	
0.0425	1	0.03350000000000001	0	4	4	0.415450645095234	29	8	8	2021_Apr_14_1148	Motor	
0.0425	1	0.03350000000000001	90	3	3	0.4230284361080976	30	8	8	2021_Apr_14_1148	Motor	
0.0005	0	0.013999999999999999	0	3	4	0.4500003647970061	31	8	8	2021_Apr_14_1148	Motor	
0.0005	1	0.0185	90	3	3	0.44163576453161113	32	8	8	2021_Apr_14_1148	Motor	
0.0425	1	0.02900000000000001	0	4	4	0.43844129592730496	33	8	8	2021_Apr_14_1148	Motor	
0.0425	1	0.02900000000000001	90	3	3	0.41019334618204084	34	8	8	2021_Apr_14_1148	Motor	
0.0005	1	0.0185	90	3	3	0.5071567386237348	35	8	8	2021_Apr_14_1148	Motor	
0.0425	1	0.02900000000000001	0	4	4	0.37482763347816217	36	8	8	2021_Apr_14_1148	Motor	
0.0005	1	0.0185	0	4	4	0.40261939513607103	37	8	8	2021_Apr_14_1148	Motor	
0.0005	1	0.013999999999999999	0	4	4	0.4133133194250149	38	8	8	2021_Apr_14_1148	Motor	
0.0425	1	0.024500000000000008	0	4	4	0.43919316147935206	39	8	8	2021_Apr_14_1148	Motor	
0.0425	1	0.024500000000000008	90	3	3	0.6616766294612262	40	8	8	2021_Apr_14_1148	Motor	
0.0005	0	0.013999999999999999	0	3	4	0.6934823086958204	41	8	8	2021_Apr_14_1148	Motor	
0.0425	1	0.024500000000000008	0	4	4	0.3722106959212397	42	8	8	2021_Apr_14_1148	Motor	
0.0005	1	0.0185	0	4	4	0.4690431454860118	43	8	8	2021_Apr_14_1148	Motor	
0.0425	1	0.020000000000000007	90	3	3	0.40571364059996995	44	8	8	2021_Apr_14_1148	Motor	
0.0005	0	0.0185	90	4	3	1.4934818478998295	45	8	8	2021_Apr_14_1148	Motor	
0.0425	1	0.020000000000000007	90	3	3	0.5700688390897994	46	8	8	2021_Apr_14_1148	Motor	
0.0005	1	0.023	90	3	3	0.42006474952449935	47	8	8	2021_Apr_14_1148	Motor	
0.0425	1	0.020000000000000007	90	3	3	0.5277132343312587	48	8	8	2021_Apr_14_1148	Motor	
0.0005	1	0.023	90	3	3	0.37849249804844476	49	8	8	2021_Apr_14_1148	Motor	
0.0425	0	0.015500000000000007	90	4	3	0.6364004302299691	50	8	8	2021_Apr_14_1148	Motor	
0.0005	1	0.023	0	4	4	0.5362494811245142	51	8	8	2021_Apr_14_1148	Motor	
0.0005	1	0.0185	0	4	4	0.7419995246120834	52	8	8	2021_Apr_14_1148	Motor	
0.0425	1	0.020000000000000007	0	4	4	0.5055443364517487	53	8	8	2021_Apr_14_1148	Motor	
0.0425	1	0.020000000000000007	90	3	3	0.4493702262009265	54	8	8	2021_Apr_14_1148	Motor	
0.0005	1	0.0185	90	3	3	0.5471887793089536	55	8	8	2021_Apr_14_1148	Motor	
0.0005	1	0.0185	0	4	4	0.6440765243999067	56	8	8	2021_Apr_14_1148	Motor	
0.0425	1	0.020000000000000007	0	4	4	0.7158604847804781	57	8	8	2021_Apr_14_1148	Motor	
0.0005	0	0.013999999999999999	90	4	3	0.5405805799809968	58	8	8	2021_Apr_14_1148	Motor	
0.0425	0	0.015500000000000007	90	4	3	0.659317353694405	59	8	8	2021_Apr_14_1148	Motor	
0.0005	1	0.0185	0	4	4	0.40316543845324304	60	8	8	2021_Apr_14_1148	Motor	
0.0425	1	0.020000000000000007	0	4	4	0.4648694852792232	61	8	8	2021_Apr_14_1148	Motor	
0.0425	1	0.020000000000000007	90	3	3	0.5816736035671966	62	8	8	2021_Apr_14_1148	Motor	
0.0005	1	0.0185	90	3	3	0.5904767280715078	63	8	8	2021_Apr_14_1148	Motor	
0.0005	1	0.0185	90	3	3	0.8073346442981801	64	8	8	2021_Apr_14_1148	Motor	
0.0425	1	0.020000000000000007	90	3	3	0.46898516198325524	65	8	8	2021_Apr_14_1148	Motor	
0.0005	1	0.013999999999999999	90	3	3	0.5748042864784111	66	8	8	2021_Apr_14_1148	Motor	
0.0425	1	0.015500000000000007	90	3	3	0.6115600672608252	67	8	8	2021_Apr_14_1148	Motor	
0.0425	1	0.015500000000000007	0	4	4	0.7403606266670977	68	8	8	2021_Apr_14_1148	Motor	
0.0005	0	0.013999999999999999	0	3	4	0.39719812962880496	69	8	8	2021_Apr_14_1148	Motor	
0.0005	1	0.0185	90	3	3	0.508741109036464	70	8	8	2021_Apr_14_1148	Motor	
0.0425	0	0.015500000000000007	0	3	4	0.5727341602319029	71	8	8	2021_Apr_14_1148	Motor	
0.0005	1	0.0185	90	3	3	0.4024358447099985	72	8	8	2021_Apr_14_1148	Motor	
0.0425	1	0.020000000000000007	90	3	3	0.5711547817766132	73	8	8	2021_Apr_14_1148	Motor	
0.0005	0	0.0185	0	3	4	0.34315328111733834	74	8	8	2021_Apr_14_1148	Motor	
0.0425	1	0.020000000000000007	90	3	3	2.6816959137759113	75	8	8	2021_Apr_14_1148	Motor	
0.0425	1	0.020000000000000007	0	4	4	0.44955454462024136	76	8	8	2021_Apr_14_1148	Motor	
0.0005	1	0.023	0	4	4	0.37020085715744244	77	8	8	2021_Apr_14_1148	Motor	
0.0425	1	0.015500000000000007	90	3	3	0.49210099574202104	78	8	8	2021_Apr_14_1148	Motor	
0.0005	1	0.023	90	3	3	0.49199962061129554	79	8	8	2021_Apr_14_1148	Motor	
0.0005	1	0.023	0	4	4	0.47637940257027367	80	8	8	2021_Apr_14_1148	Motor	
0.0425	1	0.015500000000000007	90	3	3	0.47818226710887757	81	8	8	2021_Apr_14_1148	Motor	
0.0005	1	0.0185	90	3	3	3.0189149097857353	82	8	8	2021_Apr_14_1148	Motor	
0.0425	1	0.015500000000000007	0	4	4	0.5986355061018003	83	8	8	2021_Apr_14_1148	Motor	
0.0005	1	0.0185	0	4	4	0.35537935226670925	84	8	8	2021_Apr_14_1148	Motor	
0.0425	1	0.011000000000000006	0	4	4	0.4922622743588363	85	8	8	2021_Apr_14_1148	Motor	
0.0425	1	0.011000000000000006	0	4	4	0.46703676269271455	86	8	8	2021_Apr_14_1148	Motor	
0.0005	1	0.0185	90	3	3	0.3906648096585741	87	8	8	2021_Apr_14_1148	Motor	
0.0005	1	0.013999999999999999	0	4	4	0.5214863437329313	88	8	8	2021_Apr_14_1148	Motor	
0.0425	1	0.011000000000000006	0	4	4	0.5622744739339396	89	8	8	2021_Apr_14_1148	Motor	
0.0005	1	0.013999999999999999	0	4	4	0.4412586797654967	90	8	8	2021_Apr_14_1148	Motor	
0.0425	1	0.006500000000000007	0	4	4	2.273833043607965	91	8	8	2021_Apr_14_1148	Motor	
0.0005	0	0.013999999999999999	90	4	3	0.5376606690219887	92	8	8	2021_Apr_14_1148	Motor	
0.0425	1	0.006500000000000007	90	3	3	1.652326309649652	93	8	8	2021_Apr_14_1148	Motor	
0.0005	0	0.0185	90	4	3	0.6820733825386469	94	8	8	2021_Apr_14_1148	Motor	
0.0425	1	0.006500000000000007	0	4	4	1.4508205817626276	95	8	8	2021_Apr_14_1148	Motor	
0.0425	1	0.002000000000000007	90	3	3	0.8434637424550147	96	8	8	2021_Apr_14_1148	Motor	
0.0005	1	0.023	90	3	3	0.6292315957098253	97	8	8	2021_Apr_14_1148	Motor	
0.0425	0	0.002000000000000007	90	4	3	0.8471136311536611	98	8	8	2021_Apr_14_1148	Motor	
0.0005	1	0.023	0	4	4	0.7599183469401396	99	8	8	2021_Apr_14_1148	Motor	
