subject_id,trial,effector_order,block,condition,stim1,gabor.contrast,pressed_gabor,expected_gabor,pressed_cue,expected_cue,rt_gabor,rt_cue,accuracy_gabor,accuracy_cue,congruency,SDT,pressed_conf,conf,rt_conf,trial_start_time_rel2bloc,bloc_start_time_rel2exp,exp_start_date,effector
6,1,hand2,1,cue,yellow,-1,-1,-1,3,3,-1,0.23026632076744136,-1,1,none,none,-1,-1,-1,0,31420,10:19:57.318384,hand
6,2,hand2,1,cue,yellow,-1,-1,-1,3,3,-1,0.1742654636991574,-1,1,none,none,-1,-1,-1,2648,31420,10:19:57.318384,hand
6,3,hand2,1,gabor,90,0.01848883281796313,4,4,-1,4,0.4156759699999384,-1,1,-1,congruent,CR,q,2,1.5638208328909968,5265,31420,10:19:57.318384,hand
6,4,hand2,1,cue,blue,-1,-1,-1,4,4,-1,0.18158970719923673,-1,1,none,none,-1,-1,-1,10482,31420,10:19:57.318384,hand
6,5,hand2,1,gabor,90,0.01848883281796313,4,4,-1,3,0.5684529157970246,-1,1,-1,incongruent,CR,c,3,2.3682024000972888,13199,31420,10:19:57.318384,hand
6,6,hand2,1,gabor,0,0.01848883281796313,3,3,-1,3,0.3421278782043373,-1,1,-1,congruent,hit,q,3,1.601984542059654,19381,31420,10:19:57.318384,hand
6,7,hand2,1,cue,blue,-1,-1,-1,4,4,-1,0.24272413936159865,-1,1,none,none,-1,-1,-1,24766,31420,10:19:57.318384,hand
6,8,hand2,1,cue,yellow,-1,-1,-1,3,3,-1,0.2195571969887169,-1,1,none,none,-1,-1,-1,27549,31420,10:19:57.318384,hand
6,9,hand2,1,cue,yellow,-1,-1,-1,3,3,-1,0.18544689635473333,-1,1,none,none,-1,-1,-1,30098,31420,10:19:57.318384,hand
6,10,hand2,1,gabor,0,0.01848883281796313,3,3,-1,4,0.5112517030001982,-1,1,-1,incongruent,hit,4,2,2.0492856232249324,32614,31420,10:19:57.318384,hand
6,11,hand2,1,gabor,0,0.01848883281796313,3,3,-1,4,0.3897208692942513,-1,1,-1,incongruent,hit,4,2,2.9406699413411843,41248,31420,10:19:57.318384,hand
6,12,hand2,1,cue,yellow,-1,-1,-1,3,3,-1,0.20047284646352637,-1,1,none,none,-1,-1,-1,47814,31420,10:19:57.318384,hand
6,13,hand2,1,cue,yellow,-1,-1,-1,3,3,-1,0.24619426563185698,-1,1,none,none,-1,-1,-1,50447,31420,10:19:57.318384,hand
6,14,hand2,1,cue,blue,-1,-1,-1,4,4,-1,0.2103053188893682,-1,1,none,none,-1,-1,-1,53031,31420,10:19:57.318384,hand
6,15,hand2,1,gabor,90,0.01848883281796313,4,4,-1,4,0.33906363037294796,-1,1,-1,congruent,CR,c,2,1.8359367920165823,55580,31420,10:19:57.318384,hand
6,16,hand2,1,gabor,90,0.01848883281796313,4,4,-1,4,0.5356846635550028,-1,1,-1,congruent,CR,4,1,1.1396241035727144,60997,31420,10:19:57.318384,hand
6,17,hand2,1,cue,yellow,-1,-1,-1,3,3,-1,0.229393509323927,-1,1,none,none,-1,-1,-1,66013,31420,10:19:57.318384,hand
6,18,hand2,1,cue,blue,-1,-1,-1,4,4,-1,0.18623791772461118,-1,1,none,none,-1,-1,-1,68680,31420,10:19:57.318384,hand
6,19,hand2,1,cue,blue,-1,-1,-1,4,4,-1,0.23415038929033472,-1,1,none,none,-1,-1,-1,71196,31420,10:19:57.318384,hand
6,20,hand2,1,gabor,0,0.01848883281796313,3,3,-1,3,0.4020362272431157,-1,1,-1,congruent,hit,c,2,2.925829842855819,73863,31420,10:19:57.318384,hand
6,21,hand2,1,cue,yellow,-1,-1,-1,4,3,-1,0.3015984007543011,-1,0,none,none,-1,-1,-1,80530,31420,10:19:57.318384,hand
6,22,hand2,1,cue,yellow,-1,-1,-1,3,3,-1,0.23341543059996184,-1,1,none,none,-1,-1,-1,83263,31420,10:19:57.318384,hand
6,23,hand2,1,gabor,90,0.01848883281796313,4,4,-1,3,0.3842643578063871,-1,1,-1,incongruent,CR,c,2,1.5282194953742874,86030,31420,10:19:57.318384,hand
6,24,hand2,1,cue,yellow,-1,-1,-1,3,3,-1,0.22082859104557429,-1,1,none,none,-1,-1,-1,94013,31420,10:19:57.318384,hand
6,25,hand2,1,cue,blue,-1,-1,-1,4,4,-1,0.21461024149994046,-1,1,none,none,-1,-1,-1,96563,31420,10:19:57.318384,hand
6,26,hand2,1,cue,blue,-1,-1,-1,3,4,-1,0.3782595072325421,-1,0,none,none,-1,-1,-1,102878,31420,10:19:57.318384,hand
6,27,hand2,1,cue,blue,-1,-1,-1,4,4,-1,0.19321349743586325,-1,1,none,none,-1,-1,-1,105595,31420,10:19:57.318384,hand
6,28,hand2,1,cue,blue,-1,-1,-1,4,4,-1,0.19508276541091618,-1,1,none,none,-1,-1,-1,108129,31420,10:19:57.318384,hand
6,29,hand2,1,cue,yellow,-1,-1,-1,3,3,-1,0.22387325533691182,-1,1,none,none,-1,-1,-1,110663,31420,10:19:57.318384,hand
6,30,hand2,1,gabor,0,0.01848883281796313,4,3,-1,4,0.4228212737134527,-1,0,-1,congruent,miss,4,1,1.8226134578080746,113430,31420,10:19:57.318384,hand
6,31,hand2,1,gabor,0,0.01848883281796313,3,3,-1,3,0.5383238333970439,-1,1,-1,congruent,hit,c,2,2.624386958438663,118912,31420,10:19:57.318384,hand
6,32,hand2,1,cue,blue,-1,-1,-1,4,4,-1,0.2780854825305141,-1,1,none,none,-1,-1,-1,125512,31420,10:19:57.318384,hand
6,33,hand2,1,cue,blue,-1,-1,-1,4,4,-1,0.2798672005683329,-1,1,none,none,-1,-1,-1,128229,31420,10:19:57.318384,hand
6,34,hand2,1,cue,blue,-1,-1,-1,4,4,-1,0.18370165745909617,-1,1,none,none,-1,-1,-1,130945,31420,10:19:57.318384,hand
6,35,hand2,1,cue,yellow,-1,-1,-1,3,3,-1,0.17450737800209026,-1,1,none,none,-1,-1,-1,133561,31420,10:19:57.318384,hand
6,36,hand2,1,gabor,90,0.01848883281796313,4,4,-1,3,0.41241166288091335,-1,1,-1,incongruent,CR,3,1,1.3052405549742616,136178,31420,10:19:57.318384,hand
6,37,hand2,2,gabor,90,0.01848883281796313,4,4,-1,3,0.455581846136738,-1,1,-1,incongruent,CR,3,1,1.1945520899089388,149560,31420,10:19:57.318384,hand
6,38,hand2,2,cue,yellow,-1,-1,-1,3,3,-1,0.2823481661353071,-1,1,none,none,-1,-1,-1,154577,31420,10:19:57.318384,hand
6,39,hand2,2,cue,blue,-1,-1,-1,4,4,-1,0.22332722019746143,-1,1,none,none,-1,-1,-1,157193,31420,10:19:57.318384,hand
6,40,hand2,2,gabor,0,0.01848883281796313,3,3,-1,4,0.433003561899568,-1,1,-1,incongruent,hit,q,2,1.1720425400535532,159961,31420,10:19:57.318384,hand
6,41,hand2,2,cue,blue,-1,-1,-1,4,4,-1,0.17278172264468594,-1,1,none,none,-1,-1,-1,164811,31420,10:19:57.318384,hand
6,42,hand2,2,cue,blue,-1,-1,-1,4,4,-1,0.22864434296843683,-1,1,none,none,-1,-1,-1,167310,31420,10:19:57.318384,hand
6,43,hand2,2,gabor,0,0.01848883281796313,3,3,-1,3,0.41644817581254756,-1,1,-1,congruent,hit,q,3,1.6004435863524122,170078,31420,10:19:57.318384,hand
6,44,hand2,2,cue,blue,-1,-1,-1,3,4,-1,0.26625395318751544,-1,0,none,none,-1,-1,-1,175544,31420,10:19:57.318384,hand
6,45,hand2,2,cue,blue,-1,-1,-1,4,4,-1,0.1870957535211346,-1,1,none,none,-1,-1,-1,178242,31420,10:19:57.318384,hand
6,46,hand2,2,gabor,0,0.01848883281796313,4,3,-1,3,0.6867643693249192,-1,0,-1,incongruent,miss,q,1,0.8627650881562658,180860,31420,10:19:57.318384,hand
6,47,hand2,2,cue,yellow,-1,-1,-1,3,3,-1,0.4455343387753601,-1,1,none,none,-1,-1,-1,185643,31420,10:19:57.318384,hand
6,48,hand2,2,cue,blue,-1,-1,-1,4,4,-1,0.18449498277368548,-1,1,none,none,-1,-1,-1,188426,31420,10:19:57.318384,hand
6,49,hand2,2,cue,yellow,-1,-1,-1,4,3,-1,0.5211913089024165,-1,0,none,none,-1,-1,-1,190943,31420,10:19:57.318384,hand
6,50,hand2,2,cue,blue,-1,-1,-1,4,4,-1,0.2461754500764073,-1,1,none,none,-1,-1,-1,193993,31420,10:19:57.318384,hand
6,51,hand2,2,gabor,0,0.01848883281796313,3,3,-1,3,0.4688763810236196,-1,1,-1,congruent,hit,c,2,1.8188495784552288,196777,31420,10:19:57.318384,hand
6,52,hand2,2,cue,yellow,-1,-1,-1,3,3,-1,0.3925666262703089,-1,1,none,none,-1,-1,-1,202409,31420,10:19:57.318384,hand
6,53,hand2,2,cue,yellow,-1,-1,-1,3,3,-1,0.2643969729224409,-1,1,none,none,-1,-1,-1,205327,31420,10:19:57.318384,hand
6,54,hand2,2,gabor,0,0.01848883281796313,3,3,-1,4,0.42625223290724534,-1,1,-1,incongruent,hit,4,3,1.439156632983213,208126,31420,10:19:57.318384,hand
6,55,hand2,2,cue,yellow,-1,-1,-1,4,3,-1,0.40880944372020167,-1,0,none,none,-1,-1,-1,216892,31420,10:19:57.318384,hand
6,56,hand2,2,cue,blue,-1,-1,-1,4,4,-1,0.5536185771752571,-1,1,none,none,-1,-1,-1,219625,31420,10:19:57.318384,hand
6,57,hand2,2,cue,yellow,-1,-1,-1,3,3,-1,0.22045227990838612,-1,1,none,none,-1,-1,-1,222608,31420,10:19:57.318384,hand
6,58,hand2,2,gabor,90,0.01848883281796313,4,4,-1,3,0.39230781636615575,-1,1,-1,incongruent,CR,q,2,1.7322984009078937,225258,31420,10:19:57.318384,hand
6,59,hand2,2,cue,blue,-1,-1,-1,4,4,-1,0.23904358604522713,-1,1,none,none,-1,-1,-1,230624,31420,10:19:57.318384,hand
6,60,hand2,2,cue,blue,-1,-1,-1,4,4,-1,0.1569455516182643,-1,1,none,none,-1,-1,-1,233192,31420,10:19:57.318384,hand
6,61,hand2,2,cue,yellow,-1,-1,-1,3,3,-1,0.1786994072717789,-1,1,none,none,-1,-1,-1,235675,31420,10:19:57.318384,hand
6,62,hand2,2,cue,yellow,-1,-1,-1,3,3,-1,0.17552956192776037,-1,1,none,none,-1,-1,-1,238191,31420,10:19:57.318384,hand
6,63,hand2,2,gabor,90,0.01848883281796313,4,4,-1,4,0.5592428927111541,-1,1,-1,congruent,CR,c,1,1.1322964041546584,240691,31420,10:19:57.318384,hand
6,64,hand2,2,cue,blue,-1,-1,-1,4,4,-1,0.26421265726276033,-1,1,none,none,-1,-1,-1,245724,31420,10:19:57.318384,hand
6,65,hand2,2,cue,yellow,-1,-1,-1,3,3,-1,0.18610236891709064,-1,1,none,none,-1,-1,-1,248324,31420,10:19:57.318384,hand
6,66,hand2,2,cue,yellow,-1,-1,-1,3,3,-1,0.2938394794928172,-1,1,none,none,-1,-1,-1,251042,31420,10:19:57.318384,hand
6,67,hand2,2,gabor,90,0.01848883281796313,4,4,-1,4,0.4406668694145992,-1,1,-1,congruent,CR,3,2,2.162438158256009,253658,31420,10:19:57.318384,hand
6,68,hand2,2,cue,yellow,-1,-1,-1,3,3,-1,0.25429993072793877,-1,1,none,none,-1,-1,-1,259490,31420,10:19:57.318384,hand
6,69,hand2,2,cue,blue,-1,-1,-1,4,4,-1,0.32210850970022875,-1,1,none,none,-1,-1,-1,265740,31420,10:19:57.318384,hand
6,70,hand2,2,gabor,90,0.01848883281796313,4,4,-1,4,0.3787993985170033,-1,1,-1,congruent,CR,c,1,2.6237126703199465,268391,31420,10:19:57.318384,hand
6,71,hand2,2,gabor,0,0.01848883281796313,3,3,-1,4,0.49550154594726337,-1,1,-1,incongruent,hit,q,1,1.4734017144428435,274841,31420,10:19:57.318384,hand
6,72,hand2,2,gabor,90,0.01848883281796313,4,4,-1,3,0.44524404161165876,-1,1,-1,incongruent,CR,3,2,1.2662428174498928,280056,31420,10:19:57.318384,hand
6,73,hand2,3,cue,blue,-1,-1,-1,4,4,-1,0.38320799868506583,-1,1,none,none,-1,-1,-1,298440,31420,10:19:57.318384,hand
6,74,hand2,3,gabor,0,0.01848883281796313,3,3,-1,4,0.3719743432602627,-1,1,-1,incongruent,hit,3,2,1.7489048577926951,301205,31420,10:19:57.318384,hand
6,75,hand2,3,cue,blue,-1,-1,-1,4,4,-1,0.3515018654279629,-1,1,none,none,-1,-1,-1,306672,31420,10:19:57.318384,hand
6,76,hand2,3,cue,yellow,-1,-1,-1,3,3,-1,0.2094797383324476,-1,1,none,none,-1,-1,-1,309456,31420,10:19:57.318384,hand
6,77,hand2,3,gabor,90,0.01848883281796313,4,4,-1,4,0.4161478948844888,-1,1,-1,congruent,CR,c,3,1.8843342441596178,312089,31420,10:19:57.318384,hand
6,78,hand2,3,cue,yellow,-1,-1,-1,3,3,-1,0.2101448106695898,-1,1,none,none,-1,-1,-1,317638,31420,10:19:57.318384,hand
6,79,hand2,3,cue,yellow,-1,-1,-1,3,3,-1,0.23095328058843734,-1,1,none,none,-1,-1,-1,320271,31420,10:19:57.318384,hand
6,80,hand2,3,cue,yellow,-1,-1,-1,3,3,-1,0.27277411962404585,-1,1,none,none,-1,-1,-1,323040,31420,10:19:57.318384,hand
6,81,hand2,3,cue,yellow,-1,-1,-1,3,3,-1,0.27857852691886364,-1,1,none,none,-1,-1,-1,325738,31420,10:19:57.318384,hand
6,82,hand2,3,cue,blue,-1,-1,-1,4,4,-1,0.25638192969290685,-1,1,none,none,-1,-1,-1,328455,31420,10:19:57.318384,hand
6,83,hand2,3,gabor,0,0.01848883281796313,3,3,-1,3,0.5442107987473719,-1,1,-1,congruent,hit,4,1,1.0572376919380986,331138,31420,10:19:57.318384,hand
6,84,hand2,3,cue,blue,-1,-1,-1,4,4,-1,0.20808738712548802,-1,1,none,none,-1,-1,-1,336071,31420,10:19:57.318384,hand
6,85,hand2,3,cue,yellow,-1,-1,-1,3,3,-1,0.178832652132769,-1,1,none,none,-1,-1,-1,338705,31420,10:19:57.318384,hand
6,86,hand2,3,gabor,0,0.01848883281796313,4,3,-1,3,0.32560244341129874,-1,0,-1,incongruent,miss,c,1,0.9916140215063933,341322,31420,10:19:57.318384,hand
6,87,hand2,3,cue,blue,-1,-1,-1,4,4,-1,0.19242170808320225,-1,1,none,none,-1,-1,-1,346072,31420,10:19:57.318384,hand
6,88,hand2,3,cue,yellow,-1,-1,-1,3,3,-1,0.19538957418535574,-1,1,none,none,-1,-1,-1,348587,31420,10:19:57.318384,hand
6,89,hand2,3,cue,blue,-1,-1,-1,4,4,-1,0.20229142763309937,-1,1,none,none,-1,-1,-1,351121,31420,10:19:57.318384,hand
6,90,hand2,3,cue,blue,-1,-1,-1,4,4,-1,0.21099343068271992,-1,1,none,none,-1,-1,-1,353854,31420,10:19:57.318384,hand
6,91,hand2,3,cue,yellow,-1,-1,-1,3,3,-1,0.22182197564870876,-1,1,none,none,-1,-1,-1,356488,31420,10:19:57.318384,hand
6,92,hand2,3,cue,yellow,-1,-1,-1,3,3,-1,0.1996618575640241,-1,1,none,none,-1,-1,-1,359238,31420,10:19:57.318384,hand
6,93,hand2,3,cue,blue,-1,-1,-1,4,4,-1,0.2725226055481471,-1,1,none,none,-1,-1,-1,361771,31420,10:19:57.318384,hand
6,94,hand2,3,cue,blue,-1,-1,-1,4,4,-1,0.24831351172088034,-1,1,none,none,-1,-1,-1,364571,31420,10:19:57.318384,hand
6,95,hand2,3,cue,blue,-1,-1,-1,4,4,-1,0.19319660183373344,-1,1,none,none,-1,-1,-1,367153,31420,10:19:57.318384,hand
6,96,hand2,3,gabor,0,0.01848883281796313,3,3,-1,3,0.5270022440436151,-1,1,-1,congruent,hit,4,3,1.5480130771957192,369770,31420,10:19:57.318384,hand
6,97,hand2,3,gabor,90,0.01848883281796313,4,4,-1,4,0.4943687726263306,-1,1,-1,congruent,CR,c,2,1.7237634339244323,375288,31420,10:19:57.318384,hand
6,98,hand2,3,cue,yellow,-1,-1,-1,3,3,-1,0.22144297657541756,-1,1,none,none,-1,-1,-1,380736,31420,10:19:57.318384,hand
6,99,hand2,3,gabor,0,0.01848883281796313,3,3,-1,4,0.7153678556560408,-1,1,-1,incongruent,hit,q,3,3.130266627959827,383286,31420,10:19:57.318384,hand
6,100,hand2,3,gabor,0,0.01848883281796313,3,3,-1,4,0.44481435573197814,-1,1,-1,incongruent,hit,3,3,1.151820424325706,390387,31420,10:19:57.318384,hand
6,101,hand2,3,gabor,90,0.01848883281796313,4,4,-1,3,0.5185471471777419,-1,1,-1,incongruent,CR,q,2,1.4054153476581632,395219,31420,10:19:57.318384,hand
6,102,hand2,3,cue,yellow,-1,-1,-1,3,3,-1,0.4922595103034837,-1,1,none,none,-1,-1,-1,400386,31420,10:19:57.318384,hand
6,103,hand2,3,cue,yellow,-1,-1,-1,3,3,-1,0.28230093524780386,-1,1,none,none,-1,-1,-1,403302,31420,10:19:57.318384,hand
6,104,hand2,3,gabor,90,0.01848883281796313,4,4,-1,3,0.3497143875265465,-1,1,-1,incongruent,CR,q,2,1.3787272082163327,408852,31420,10:19:57.318384,hand
6,105,hand2,3,gabor,90,0.01848883281796313,4,4,-1,4,0.340284721613898,-1,1,-1,congruent,CR,3,1,1.1002980537796248,417585,31420,10:19:57.318384,hand
6,106,hand2,3,cue,blue,-1,-1,-1,4,4,-1,0.2461090196402438,-1,1,none,none,-1,-1,-1,422469,31420,10:19:57.318384,hand
6,107,hand2,3,cue,blue,-1,-1,-1,4,4,-1,0.26095180606262147,-1,1,none,none,-1,-1,-1,425152,31420,10:19:57.318384,hand
6,108,hand2,3,gabor,90,0.01848883281796313,3,4,-1,3,0.4706922742552706,-1,0,-1,congruent,FA,q,1,1.9796158400877175,427735,31420,10:19:57.318384,hand
6,109,hand2,4,cue,blue,-1,-1,-1,4,4,-1,0.20403897047435748,-1,1,none,none,-1,-1,-1,458484,31420,10:19:57.318384,hand
6,110,hand2,4,cue,blue,-1,-1,-1,4,4,-1,0.18080674963948695,-1,1,none,none,-1,-1,-1,461218,31420,10:19:57.318384,hand
6,111,hand2,4,cue,yellow,-1,-1,-1,3,3,-1,0.25067851201947633,-1,1,none,none,-1,-1,-1,463936,31420,10:19:57.318384,hand
6,112,hand2,4,cue,blue,-1,-1,-1,4,4,-1,0.18151060506170325,-1,1,none,none,-1,-1,-1,466517,31420,10:19:57.318384,hand
6,113,hand2,4,gabor,0,0.01848883281796313,3,3,-1,4,0.3354065005059965,-1,1,-1,incongruent,hit,c,3,1.658312559422484,469134,31420,10:19:57.318384,hand
6,114,hand2,4,gabor,90,0.01848883281796313,4,4,-1,3,0.3651070489995618,-1,1,-1,incongruent,CR,q,3,1.867999268881249,474466,31420,10:19:57.318384,hand
6,115,hand2,4,cue,blue,-1,-1,-1,4,4,-1,0.2217766647154349,-1,1,none,none,-1,-1,-1,479934,31420,10:19:57.318384,hand
6,116,hand2,4,cue,yellow,-1,-1,-1,3,3,-1,0.26558849685989117,-1,1,none,none,-1,-1,-1,482684,31420,10:19:57.318384,hand
6,117,hand2,4,cue,blue,-1,-1,-1,4,4,-1,0.20046017476215638,-1,1,none,none,-1,-1,-1,485383,31420,10:19:57.318384,hand
6,118,hand2,4,cue,yellow,-1,-1,-1,3,3,-1,0.21026115992935956,-1,1,none,none,-1,-1,-1,488016,31420,10:19:57.318384,hand
6,119,hand2,4,cue,yellow,-1,-1,-1,3,3,-1,0.19332063091223972,-1,1,none,none,-1,-1,-1,490649,31420,10:19:57.318384,hand
6,120,hand2,4,cue,yellow,-1,-1,-1,3,3,-1,0.23694008358688734,-1,1,none,none,-1,-1,-1,493266,31420,10:19:57.318384,hand
6,121,hand2,4,gabor,0,0.01848883281796313,4,3,-1,4,0.44384631453158363,-1,0,-1,congruent,miss,q,1,1.694818579632738,495933,31420,10:19:57.318384,hand
6,122,hand2,4,cue,blue,-1,-1,-1,4,4,-1,0.25050494810784585,-1,1,none,none,-1,-1,-1,501500,31420,10:19:57.318384,hand
6,123,hand2,4,cue,yellow,-1,-1,-1,3,3,-1,0.21839677631942322,-1,1,none,none,-1,-1,-1,504082,31420,10:19:57.318384,hand
6,124,hand2,4,gabor,0,0.01848883281796313,3,3,-1,4,0.5723124088981422,-1,1,-1,incongruent,hit,q,2,2.730126548059161,506732,31420,10:19:57.318384,hand
6,125,hand2,4,cue,blue,-1,-1,-1,4,4,-1,0.2728678134171787,-1,1,none,none,-1,-1,-1,513283,31420,10:19:57.318384,hand
6,126,hand2,4,gabor,90,0.01848883281796313,4,4,-1,3,0.41265626511994924,-1,1,-1,incongruent,CR,c,3,1.547636382068049,515883,31420,10:19:57.318384,hand
6,127,hand2,4,gabor,90,0.01848883281796313,4,4,-1,4,0.45616474440794264,-1,1,-1,congruent,CR,c,2,1.6012875984743005,521082,31420,10:19:57.318384,hand
6,128,hand2,4,gabor,0,0.01848883281796313,3,3,-1,3,0.7281785619379662,-1,1,-1,congruent,hit,q,3,1.8390240793050907,526481,31420,10:19:57.318384,hand
6,129,hand2,4,cue,yellow,-1,-1,-1,3,3,-1,0.25848658412360237,-1,1,none,none,-1,-1,-1,535115,31420,10:19:57.318384,hand
6,130,hand2,4,cue,blue,-1,-1,-1,4,4,-1,0.21945236745796137,-1,1,none,none,-1,-1,-1,537698,31420,10:19:57.318384,hand
6,131,hand2,4,cue,yellow,-1,-1,-1,3,3,-1,0.18430836317020294,-1,1,none,none,-1,-1,-1,540348,31420,10:19:57.318384,hand
6,132,hand2,4,gabor,90,0.01848883281796313,4,4,-1,4,0.3822203739464385,-1,1,-1,congruent,CR,3,2,1.2210536097454678,542964,31420,10:19:57.318384,hand
6,133,hand2,4,gabor,90,0.01848883281796313,4,4,-1,4,0.33881326827031444,-1,1,-1,congruent,CR,3,1,1.0368036132013003,547999,31420,10:19:57.318384,hand
6,134,hand2,4,cue,yellow,-1,-1,-1,3,3,-1,0.3106463796566459,-1,1,none,none,-1,-1,-1,552815,31420,10:19:57.318384,hand
6,135,hand2,4,cue,blue,-1,-1,-1,4,4,-1,0.20340576938724553,-1,1,none,none,-1,-1,-1,555547,31420,10:19:57.318384,hand
6,136,hand2,4,cue,blue,-1,-1,-1,4,4,-1,0.26725424962751276,-1,1,none,none,-1,-1,-1,558081,31420,10:19:57.318384,hand
6,137,hand2,4,gabor,90,0.01848883281796313,3,4,-1,3,0.5610441942872058,-1,0,-1,congruent,FA,3,1,1.7251688408241534,560780,31420,10:19:57.318384,hand
6,138,hand2,4,gabor,0,0.01848883281796313,4,3,-1,3,0.4677674151416795,-1,0,-1,incongruent,miss,c,1,2.097692291151361,566297,31420,10:19:57.318384,hand
6,139,hand2,4,cue,yellow,-1,-1,-1,4,3,-1,0.24845827631088468,-1,0,none,none,-1,-1,-1,572114,31420,10:19:57.318384,hand
6,140,hand2,4,cue,yellow,-1,-1,-1,3,3,-1,0.4184084496446303,-1,1,none,none,-1,-1,-1,574697,31420,10:19:57.318384,hand
6,141,hand2,4,cue,blue,-1,-1,-1,4,4,-1,0.21326166526159795,-1,1,none,none,-1,-1,-1,577446,31420,10:19:57.318384,hand
6,142,hand2,4,cue,yellow,-1,-1,-1,3,3,-1,0.3727876361053859,-1,1,none,none,-1,-1,-1,583764,31420,10:19:57.318384,hand
6,143,hand2,4,cue,blue,-1,-1,-1,4,4,-1,0.1896650370090356,-1,1,none,none,-1,-1,-1,586563,31420,10:19:57.318384,hand
6,144,hand2,4,gabor,0,0.01848883281796313,3,3,-1,3,0.40243480985554925,-1,1,-1,congruent,hit,4,2,1.6944645399717047,589080,31420,10:19:57.318384,hand
6,145,hand2,5,gabor,90,0.01848883281796313,4,4,-1,3,0.4193764908450248,-1,1,-1,incongruent,CR,3,2,1.2674331894131683,641544,31420,10:19:57.318384,hand
6,146,hand2,5,cue,yellow,-1,-1,-1,3,3,-1,0.26435473391666164,-1,1,none,none,-1,-1,-1,646728,31420,10:19:57.318384,hand
6,147,hand2,5,gabor,0,0.01848883281796313,4,3,-1,4,0.37012965070607606,-1,0,-1,congruent,miss,c,1,1.1950850693565371,649427,31420,10:19:57.318384,hand
6,148,hand2,5,cue,yellow,-1,-1,-1,3,3,-1,0.24478617079603282,-1,1,none,none,-1,-1,-1,654228,31420,10:19:57.318384,hand
6,149,hand2,5,cue,yellow,-1,-1,-1,3,3,-1,0.46365640796466323,-1,1,none,none,-1,-1,-1,656911,31420,10:19:57.318384,hand
6,150,hand2,5,cue,yellow,-1,-1,-1,3,3,-1,0.21051689790601813,-1,1,none,none,-1,-1,-1,659811,31420,10:19:57.318384,hand
6,151,hand2,5,cue,blue,-1,-1,-1,4,4,-1,0.2232642456801841,-1,1,none,none,-1,-1,-1,662545,31420,10:19:57.318384,hand
6,152,hand2,5,gabor,0,0.01848883281796313,4,3,-1,3,0.37727188249300525,-1,0,-1,incongruent,miss,3,1,1.8061060705895216,665094,31420,10:19:57.318384,hand
6,153,hand2,5,cue,blue,-1,-1,-1,4,4,-1,0.17486602555618447,-1,1,none,none,-1,-1,-1,670611,31420,10:19:57.318384,hand
6,154,hand2,5,cue,blue,-1,-1,-1,4,4,-1,0.19476827681774012,-1,1,none,none,-1,-1,-1,673211,31420,10:19:57.318384,hand
6,155,hand2,5,gabor,90,0.01848883281796313,4,4,-1,4,0.6603838066403114,-1,1,-1,congruent,CR,q,1,3.1444251424991307,675827,31420,10:19:57.318384,hand
6,156,hand2,5,cue,yellow,-1,-1,-1,3,3,-1,0.2131821791335824,-1,1,none,none,-1,-1,-1,682860,31420,10:19:57.318384,hand
6,157,hand2,5,cue,blue,-1,-1,-1,4,4,-1,0.20811426649288478,-1,1,none,none,-1,-1,-1,685510,31420,10:19:57.318384,hand
6,158,hand2,5,cue,blue,-1,-1,-1,4,4,-1,0.22594719049175183,-1,1,none,none,-1,-1,-1,688043,31420,10:19:57.318384,hand
6,159,hand2,5,cue,blue,-1,-1,-1,4,4,-1,0.4087334135101628,-1,1,none,none,-1,-1,-1,690794,31420,10:19:57.318384,hand
6,160,hand2,5,cue,blue,-1,-1,-1,4,4,-1,0.1756125039746621,-1,1,none,none,-1,-1,-1,693526,31420,10:19:57.318384,hand
6,161,hand2,5,cue,yellow,-1,-1,-1,3,3,-1,0.19840275121805462,-1,1,none,none,-1,-1,-1,696026,31420,10:19:57.318384,hand
6,162,hand2,5,gabor,90,0.01848883281796313,4,4,-1,4,0.45332205935847014,-1,1,-1,congruent,CR,c,3,2.444292896013394,698559,31420,10:19:57.318384,hand
6,163,hand2,5,cue,yellow,-1,-1,-1,3,3,-1,0.2109054967531847,-1,1,none,none,-1,-1,-1,704792,31420,10:19:57.318384,hand
6,164,hand2,5,cue,blue,-1,-1,-1,4,4,-1,0.24573846836756275,-1,1,none,none,-1,-1,-1,707527,31420,10:19:57.318384,hand
6,165,hand2,5,cue,yellow,-1,-1,-1,3,3,-1,0.20325601291369821,-1,1,none,none,-1,-1,-1,716808,31420,10:19:57.318384,hand
6,166,hand2,5,gabor,90,0.01848883281796313,4,4,-1,4,0.28808230308550264,-1,1,-1,congruent,CR,3,2,1.0941054316281225,719543,31420,10:19:57.318384,hand
6,167,hand2,5,gabor,0,0.01848883281796313,3,3,-1,4,0.43480140755764296,-1,1,-1,incongruent,hit,3,3,1.7177236401730624,724159,31420,10:19:57.318384,hand
6,168,hand2,5,cue,blue,-1,-1,-1,4,4,-1,0.2274662587142302,-1,1,none,none,-1,-1,-1,729760,31420,10:19:57.318384,hand
6,169,hand2,5,gabor,0,0.01848883281796313,3,3,-1,4,0.4701496950337969,-1,1,-1,incongruent,hit,4,2,1.322273241820767,732509,31420,10:19:57.318384,hand
6,170,hand2,5,cue,yellow,-1,-1,-1,4,3,-1,0.19013081803950627,-1,0,none,none,-1,-1,-1,737641,31420,10:19:57.318384,hand
6,171,hand2,5,gabor,0,0.01848883281796313,3,3,-1,3,0.5798785666993354,-1,1,-1,congruent,hit,4,2,2.0777481848745083,740259,31420,10:19:57.318384,hand
6,172,hand2,5,cue,blue,-1,-1,-1,4,4,-1,0.2785301440580952,-1,1,none,none,-1,-1,-1,746242,31420,10:19:57.318384,hand
6,173,hand2,5,gabor,0,0.01848883281796313,3,3,-1,3,0.4343198828983077,-1,1,-1,congruent,hit,3,2,0.9732400542507094,749059,31420,10:19:57.318384,hand
6,174,hand2,5,cue,yellow,-1,-1,-1,3,3,-1,0.2532481794987689,-1,1,none,none,-1,-1,-1,753708,31420,10:19:57.318384,hand
6,175,hand2,5,cue,yellow,-1,-1,-1,3,3,-1,0.21883913390047383,-1,1,none,none,-1,-1,-1,759324,31420,10:19:57.318384,hand
6,176,hand2,5,cue,yellow,-1,-1,-1,3,3,-1,0.2126622553787456,-1,1,none,none,-1,-1,-1,762075,31420,10:19:57.318384,hand
6,177,hand2,5,gabor,90,0.01848883281796313,4,4,-1,3,0.36240490464024333,-1,1,-1,incongruent,CR,c,2,2.1943201593721824,764724,31420,10:19:57.318384,hand
6,178,hand2,5,gabor,90,0.01848883281796313,4,4,-1,3,0.40313981725103076,-1,1,-1,incongruent,CR,c,1,1.1690911855648665,770524,31420,10:19:57.318384,hand
6,179,hand2,5,cue,blue,-1,-1,-1,3,4,-1,0.25282463747407746,-1,0,none,none,-1,-1,-1,775542,31420,10:19:57.318384,hand
6,180,hand2,5,cue,blue,-1,-1,-1,4,4,-1,0.2057385144462387,-1,1,none,none,-1,-1,-1,778124,31420,10:19:57.318384,hand
6,181,hand2,6,cue,yellow,-1,-1,-1,3,3,-1,0.2142308584343482,-1,1,none,none,-1,-1,-1,803939,31420,10:19:57.318384,hand
6,182,hand2,6,gabor,0,0.01848883281796313,4,3,-1,4,0.24917480343447096,-1,0,-1,congruent,miss,c,1,1.1180745311085047,806572,31420,10:19:57.318384,hand
6,183,hand2,6,cue,yellow,-1,-1,-1,3,3,-1,0.17475543616001232,-1,1,none,none,-1,-1,-1,811391,31420,10:19:57.318384,hand
6,184,hand2,6,gabor,90,0.01848883281796313,4,4,-1,3,0.3737003826090586,-1,1,-1,incongruent,CR,q,2,1.3815218943964283,814090,31420,10:19:57.318384,hand
6,185,hand2,6,cue,yellow,-1,-1,-1,3,3,-1,0.22235303514116822,-1,1,none,none,-1,-1,-1,819189,31420,10:19:57.318384,hand
6,186,hand2,6,gabor,0,0.01848883281796313,4,3,-1,4,0.47821888098951604,-1,0,-1,congruent,miss,3,1,1.1752692160589504,821739,31420,10:19:57.318384,hand
6,187,hand2,6,cue,blue,-1,-1,-1,4,4,-1,0.18208159961432102,-1,1,none,none,-1,-1,-1,826721,31420,10:19:57.318384,hand
6,188,hand2,6,gabor,0,0.01848883281796313,3,3,-1,4,0.5328246989129184,-1,1,-1,incongruent,hit,q,3,1.5817528265579313,829339,31420,10:19:57.318384,hand
6,189,hand2,6,cue,blue,-1,-1,-1,4,4,-1,0.23353101187785796,-1,1,none,none,-1,-1,-1,834705,31420,10:19:57.318384,hand
6,190,hand2,6,cue,blue,-1,-1,-1,4,4,-1,0.321312880439109,-1,1,none,none,-1,-1,-1,837271,31420,10:19:57.318384,hand
6,191,hand2,6,gabor,90,0.01848883281796313,3,4,-1,3,0.7972063121969768,-1,0,-1,congruent,FA,4,2,2.3611231428285464,840021,31420,10:19:57.318384,hand
6,192,hand2,6,cue,yellow,-1,-1,-1,3,3,-1,0.3298455434778589,-1,1,none,none,-1,-1,-1,846623,31420,10:19:57.318384,hand
6,193,hand2,6,cue,blue,-1,-1,-1,4,4,-1,0.31073968945929664,-1,1,none,none,-1,-1,-1,849489,31420,10:19:57.318384,hand
6,194,hand2,6,cue,yellow,-1,-1,-1,3,3,-1,0.1824947738832634,-1,1,none,none,-1,-1,-1,852322,31420,10:19:57.318384,hand
6,195,hand2,6,cue,blue,-1,-1,-1,4,4,-1,0.2703423048988043,-1,1,none,none,-1,-1,-1,854838,31420,10:19:57.318384,hand
6,196,hand2,6,gabor,0,0.01848883281796313,3,3,-1,3,0.44017459300812334,-1,1,-1,congruent,hit,q,3,3.0862320810620076,857438,31420,10:19:57.318384,hand
6,197,hand2,6,cue,yellow,-1,-1,-1,3,3,-1,0.19576972523100267,-1,1,none,none,-1,-1,-1,864405,31420,10:19:57.318384,hand
6,198,hand2,6,gabor,90,0.01848883281796313,4,4,-1,4,0.3686750929646223,-1,1,-1,congruent,CR,c,2,1.361570108300839,867038,31420,10:19:57.318384,hand
6,199,hand2,6,cue,blue,-1,-1,-1,4,4,-1,0.23836238608873828,-1,1,none,none,-1,-1,-1,872205,31420,10:19:57.318384,hand
6,200,hand2,6,gabor,90,0.01848883281796313,4,4,-1,4,0.5512332253547356,-1,1,-1,congruent,CR,c,2,1.6930652769269727,874770,31420,10:19:57.318384,hand
6,201,hand2,6,cue,yellow,-1,-1,-1,3,3,-1,0.24501157348731795,-1,1,none,none,-1,-1,-1,880455,31420,10:19:57.318384,hand
6,202,hand2,6,cue,yellow,-1,-1,-1,3,3,-1,0.15468653282277955,-1,1,none,none,-1,-1,-1,883137,31420,10:19:57.318384,hand
6,203,hand2,6,cue,blue,-1,-1,-1,4,4,-1,0.2215800613457759,-1,1,none,none,-1,-1,-1,885620,31420,10:19:57.318384,hand
6,204,hand2,6,cue,yellow,-1,-1,-1,3,3,-1,0.23345037377748667,-1,1,none,none,-1,-1,-1,888170,31420,10:19:57.318384,hand
6,205,hand2,6,gabor,90,0.01848883281796313,4,4,-1,4,0.3693539889745807,-1,1,-1,congruent,CR,4,2,1.566309478279436,890736,31420,10:19:57.318384,hand
6,206,hand2,6,gabor,0,0.01848883281796313,3,3,-1,3,0.38597273356936057,-1,1,-1,congruent,hit,4,3,1.7888929079936133,896120,31420,10:19:57.318384,hand
6,207,hand2,6,cue,blue,-1,-1,-1,4,4,-1,0.24854198633966007,-1,1,none,none,-1,-1,-1,901738,31420,10:19:57.318384,hand
6,208,hand2,6,cue,blue,-1,-1,-1,4,4,-1,0.1965069878669965,-1,1,none,none,-1,-1,-1,904419,31420,10:19:57.318384,hand
6,209,hand2,6,cue,blue,-1,-1,-1,4,4,-1,0.19534771917096805,-1,1,none,none,-1,-1,-1,907154,31420,10:19:57.318384,hand
6,210,hand2,6,cue,blue,-1,-1,-1,4,4,-1,0.19323000904660148,-1,1,none,none,-1,-1,-1,909887,31420,10:19:57.318384,hand
6,211,hand2,6,gabor,0,0.01848883281796313,4,3,-1,3,0.36805878747964016,-1,0,-1,incongruent,miss,q,2,1.8959607223332569,912502,31420,10:19:57.318384,hand
6,212,hand2,6,cue,yellow,-1,-1,-1,3,3,-1,0.25780922407739126,-1,1,none,none,-1,-1,-1,918003,31420,10:19:57.318384,hand
6,213,hand2,6,cue,yellow,-1,-1,-1,3,3,-1,0.26457437674434914,-1,1,none,none,-1,-1,-1,920686,31420,10:19:57.318384,hand
6,214,hand2,6,gabor,90,0.01848883281796313,4,4,-1,3,0.32539201636700454,-1,1,-1,incongruent,CR,3,2,1.4313378091319464,923385,31420,10:19:57.318384,hand
6,215,hand2,6,cue,yellow,-1,-1,-1,3,3,-1,0.23820686975250283,-1,1,none,none,-1,-1,-1,928586,31420,10:19:57.318384,hand
6,216,hand2,6,cue,blue,-1,-1,-1,4,4,-1,0.20697534931605333,-1,1,none,none,-1,-1,-1,931353,31420,10:19:57.318384,hand
6,217,hand2,7,cue,yellow,-1,-1,-1,3,3,-1,0.20145547932042973,-1,1,none,none,-1,-1,-1,939601,31420,10:19:57.318384,hand
6,218,hand2,7,gabor,90,0.01848883281796313,4,4,-1,4,0.3823129157663061,-1,1,-1,congruent,CR,c,2,1.190279806529361,942151,31420,10:19:57.318384,hand
6,219,hand2,7,cue,blue,-1,-1,-1,4,4,-1,0.217075079447568,-1,1,none,none,-1,-1,-1,947152,31420,10:19:57.318384,hand
6,220,hand2,7,gabor,90,0.01848883281796313,4,4,-1,4,0.39689881223876,-1,1,-1,congruent,CR,3,3,0.9458154201547586,949903,31420,10:19:57.318384,hand
6,221,hand2,7,cue,blue,-1,-1,-1,4,4,-1,0.19866002515846048,-1,1,none,none,-1,-1,-1,954468,31420,10:19:57.318384,hand
6,222,hand2,7,cue,blue,-1,-1,-1,4,4,-1,0.23146706048737542,-1,1,none,none,-1,-1,-1,957202,31420,10:19:57.318384,hand
6,223,hand2,7,cue,yellow,-1,-1,-1,3,3,-1,0.2554096645917525,-1,1,none,none,-1,-1,-1,959969,31420,10:19:57.318384,hand
6,224,hand2,7,gabor,0,0.01848883281796313,3,3,-1,3,0.41924593391922826,-1,1,-1,congruent,hit,3,3,1.2372127171665852,962551,31420,10:19:57.318384,hand
6,225,hand2,7,cue,blue,-1,-1,-1,4,4,-1,0.20994129546306795,-1,1,none,none,-1,-1,-1,967451,31420,10:19:57.318384,hand
6,226,hand2,7,cue,yellow,-1,-1,-1,3,3,-1,0.2007554638066722,-1,1,none,none,-1,-1,-1,969984,31420,10:19:57.318384,hand
6,227,hand2,7,gabor,0,0.01848883281796313,3,3,-1,4,0.4766130308098582,-1,1,-1,incongruent,hit,3,2,1.1405249463568907,972718,31420,10:19:57.318384,hand
6,228,hand2,7,cue,yellow,-1,-1,-1,4,3,-1,0.22728194305545912,-1,0,none,none,-1,-1,-1,977667,31420,10:19:57.318384,hand
6,229,hand2,7,gabor,0,0.01848883281796313,3,3,-1,4,0.4361760951805991,-1,1,-1,incongruent,hit,q,3,1.255179270017834,980317,31420,10:19:57.318384,hand
6,230,hand2,7,gabor,90,0.01848883281796313,3,4,-1,4,0.4809025937820479,-1,0,-1,incongruent,FA,3,1,0.8528466017569372,985351,31420,10:19:57.318384,hand
6,231,hand2,7,cue,blue,-1,-1,-1,4,4,-1,0.24569469339894567,-1,1,none,none,-1,-1,-1,990135,31420,10:19:57.318384,hand
6,232,hand2,7,cue,yellow,-1,-1,-1,3,3,-1,0.20339885754947318,-1,1,none,none,-1,-1,-1,992918,31420,10:19:57.318384,hand
6,233,hand2,7,cue,yellow,-1,-1,-1,3,3,-1,0.27328751553250186,-1,1,none,none,-1,-1,-1,995651,31420,10:19:57.318384,hand
6,234,hand2,7,cue,yellow,-1,-1,-1,3,3,-1,0.2981977768467914,-1,1,none,none,-1,-1,-1,998350,31420,10:19:57.318384,hand
6,235,hand2,7,cue,blue,-1,-1,-1,4,4,-1,0.22988156182964303,-1,1,none,none,-1,-1,-1,1004016,31420,10:19:57.318384,hand
6,236,hand2,7,cue,yellow,-1,-1,-1,3,3,-1,0.29663454966339486,-1,1,none,none,-1,-1,-1,1006784,31420,10:19:57.318384,hand
6,237,hand2,7,gabor,90,0.01848883281796313,4,4,-1,3,0.4795313620770685,-1,1,-1,incongruent,CR,q,2,1.4494076555511128,1009417,31420,10:19:57.318384,hand
6,238,hand2,7,cue,blue,-1,-1,-1,4,4,-1,0.26420459345354175,-1,1,none,none,-1,-1,-1,1014599,31420,10:19:57.318384,hand
6,239,hand2,7,cue,blue,-1,-1,-1,4,4,-1,0.29103020165621274,-1,1,none,none,-1,-1,-1,1017400,31420,10:19:57.318384,hand
6,240,hand2,7,gabor,0,0.01848883281796313,3,3,-1,3,0.33669863007435197,-1,1,-1,congruent,hit,3,2,1.7976371500499226,1022949,31420,10:19:57.318384,hand
6,241,hand2,7,cue,blue,-1,-1,-1,4,4,-1,0.2134294693096308,-1,1,none,none,-1,-1,-1,1028332,31420,10:19:57.318384,hand
6,242,hand2,7,cue,yellow,-1,-1,-1,3,3,-1,0.31822751310483,-1,1,none,none,-1,-1,-1,1030983,31420,10:19:57.318384,hand
6,243,hand2,7,cue,blue,-1,-1,-1,4,4,-1,0.35818714797551365,-1,1,none,none,-1,-1,-1,1033833,31420,10:19:57.318384,hand
6,244,hand2,7,gabor,90,0.01848883281796313,4,4,-1,3,0.5279499337229936,-1,1,-1,incongruent,CR,4,1,0.8699998617630627,1036715,31420,10:19:57.318384,hand
6,245,hand2,7,gabor,0,0.01848883281796313,3,3,-1,3,0.40968225516371604,-1,1,-1,congruent,hit,c,3,1.7645816725726036,1041448,31420,10:19:57.318384,hand
6,246,hand2,7,cue,blue,-1,-1,-1,4,4,-1,0.26239177214938536,-1,1,none,none,-1,-1,-1,1046865,31420,10:19:57.318384,hand
6,247,hand2,7,gabor,0,0.01848883281796313,3,3,-1,4,0.40522181621599884,-1,1,-1,incongruent,hit,c,4,1.6322096221983884,1049565,31420,10:19:57.318384,hand
6,248,hand2,7,gabor,90,0.01848883281796313,4,4,-1,3,0.4466694160419138,-1,1,-1,incongruent,CR,4,3,2.114688882847986,1057681,31420,10:19:57.318384,hand
6,249,hand2,7,cue,yellow,-1,-1,-1,3,3,-1,0.2514150066735965,-1,1,none,none,-1,-1,-1,1063699,31420,10:19:57.318384,hand
6,250,hand2,7,cue,yellow,-1,-1,-1,3,3,-1,0.22618833681281103,-1,1,none,none,-1,-1,-1,1066281,31420,10:19:57.318384,hand
6,251,hand2,7,cue,blue,-1,-1,-1,4,4,-1,0.2571591273881495,-1,1,none,none,-1,-1,-1,1068931,31420,10:19:57.318384,hand
6,252,hand2,7,cue,yellow,-1,-1,-1,3,3,-1,0.23098438385568443,-1,1,none,none,-1,-1,-1,1071514,31420,10:19:57.318384,hand
6,253,hand2,8,cue,yellow,-1,-1,-1,3,3,-1,0.19770465566034545,-1,1,none,none,-1,-1,-1,1092913,31420,10:19:57.318384,hand
6,254,hand2,8,cue,yellow,-1,-1,-1,3,3,-1,0.1795361235654127,-1,1,none,none,-1,-1,-1,1095613,31420,10:19:57.318384,hand
6,255,hand2,8,cue,yellow,-1,-1,-1,3,3,-1,0.18645333665153885,-1,1,none,none,-1,-1,-1,1098130,31420,10:19:57.318384,hand
6,256,hand2,8,gabor,0,0.01848883281796313,4,3,-1,3,0.49611746744085394,-1,0,-1,incongruent,miss,3,1,3.1082505064841826,1100746,31420,10:19:57.318384,hand
6,257,hand2,8,cue,blue,-1,-1,-1,4,4,-1,0.198815925486997,-1,1,none,none,-1,-1,-1,1107697,31420,10:19:57.318384,hand
6,258,hand2,8,cue,blue,-1,-1,-1,4,4,-1,0.27073090374506137,-1,1,none,none,-1,-1,-1,1110431,31420,10:19:57.318384,hand
6,259,hand2,8,cue,blue,-1,-1,-1,4,4,-1,0.2075386640499346,-1,1,none,none,-1,-1,-1,1113231,31420,10:19:57.318384,hand
6,260,hand2,8,cue,yellow,-1,-1,-1,3,3,-1,0.19142217962507857,-1,1,none,none,-1,-1,-1,1115964,31420,10:19:57.318384,hand
6,261,hand2,8,cue,yellow,-1,-1,-1,3,3,-1,0.17225872696235456,-1,1,none,none,-1,-1,-1,1118579,31420,10:19:57.318384,hand
6,262,hand2,8,gabor,0,0.01848883281796313,3,3,-1,3,0.4521562628160609,-1,1,-1,congruent,hit,4,2,2.030159417685354,1121179,31420,10:19:57.318384,hand
6,263,hand2,8,gabor,90,0.01848883281796313,4,4,-1,3,0.6457948382403629,-1,1,-1,incongruent,CR,3,1,0.706700411791644,1126912,31420,10:19:57.318384,hand
6,264,hand2,8,cue,blue,-1,-1,-1,4,4,-1,0.2805338088674034,-1,1,none,none,-1,-1,-1,1131495,31420,10:19:57.318384,hand
6,265,hand2,8,cue,yellow,-1,-1,-1,3,3,-1,0.301457476073665,-1,1,none,none,-1,-1,-1,1134112,31420,10:19:57.318384,hand
6,266,hand2,8,gabor,0,0.01848883281796313,3,3,-1,4,0.3542796560059287,-1,1,-1,incongruent,hit,q,2,2.614225789754528,1136745,31420,10:19:57.318384,hand
6,267,hand2,8,cue,blue,-1,-1,-1,4,4,-1,0.23783823843405116,-1,1,none,none,-1,-1,-1,1143062,31420,10:19:57.318384,hand
6,268,hand2,8,gabor,90,0.01848883281796313,4,4,-1,4,0.5136558703770788,-1,1,-1,congruent,CR,4,1,0.901611149254677,1145830,31420,10:19:57.318384,hand
6,269,hand2,8,cue,blue,-1,-1,-1,3,4,-1,0.24439181208435912,-1,0,none,none,-1,-1,-1,1150679,31420,10:19:57.318384,hand
6,270,hand2,8,cue,yellow,-1,-1,-1,3,3,-1,0.277175423963854,-1,1,none,none,-1,-1,-1,1153345,31420,10:19:57.318384,hand
6,271,hand2,8,cue,blue,-1,-1,-1,4,4,-1,0.19821344367665006,-1,1,none,none,-1,-1,-1,1156044,31420,10:19:57.318384,hand
6,272,hand2,8,gabor,90,0.01848883281796313,4,4,-1,3,0.5939910023234916,-1,1,-1,incongruent,CR,4,2,1.693902377211998,1158779,31420,10:19:57.318384,hand
6,273,hand2,8,cue,yellow,-1,-1,-1,3,3,-1,0.22562310212470038,-1,1,none,none,-1,-1,-1,1164395,31420,10:19:57.318384,hand
6,274,hand2,8,cue,blue,-1,-1,-1,4,4,-1,0.22944227617517754,-1,1,none,none,-1,-1,-1,1167146,31420,10:19:57.318384,hand
6,275,hand2,8,gabor,0,0.01848883281796313,3,3,-1,4,0.3462143099604873,-1,1,-1,incongruent,hit,c,3,1.2892611553206734,1169912,31420,10:19:57.318384,hand
6,276,hand2,8,gabor,0,0.01848883281796313,3,3,-1,4,0.4981130684409436,-1,1,-1,incongruent,hit,4,3,0.8920493904524847,1174978,31420,10:19:57.318384,hand
6,277,hand2,8,cue,yellow,-1,-1,-1,3,3,-1,0.3597611269060508,-1,1,none,none,-1,-1,-1,1179594,31420,10:19:57.318384,hand
6,278,hand2,8,cue,yellow,-1,-1,-1,3,3,-1,0.275730082004884,-1,1,none,none,-1,-1,-1,1182377,31420,10:19:57.318384,hand
6,279,hand2,8,cue,blue,-1,-1,-1,4,4,-1,0.21345673266660015,-1,1,none,none,-1,-1,-1,1185178,31420,10:19:57.318384,hand
6,280,hand2,8,gabor,0,0.01848883281796313,3,3,-1,3,0.5473380210951291,-1,1,-1,congruent,hit,q,3,1.01630771192049,1187727,31420,10:19:57.318384,hand
6,281,hand2,8,cue,blue,-1,-1,-1,4,4,-1,0.250079102136624,-1,1,none,none,-1,-1,-1,1192543,31420,10:19:57.318384,hand
6,282,hand2,8,gabor,90,0.01848883281796313,4,4,-1,4,0.5258391354363994,-1,1,-1,congruent,CR,3,1,0.7828081873021802,1195328,31420,10:19:57.318384,hand
6,283,hand2,8,cue,blue,-1,-1,-1,4,4,-1,0.25171144769228704,-1,1,none,none,-1,-1,-1,1199977,31420,10:19:57.318384,hand
6,284,hand2,8,gabor,90,0.01848883281796313,4,4,-1,4,0.5614151295512784,-1,1,-1,congruent,CR,c,1,3.6874259857431753,1202761,31420,10:19:57.318384,hand
6,285,hand2,8,cue,blue,-1,-1,-1,4,4,-1,0.23412811781417986,-1,1,none,none,-1,-1,-1,1210243,31420,10:19:57.318384,hand
6,286,hand2,8,cue,yellow,-1,-1,-1,3,3,-1,0.2658803299864303,-1,1,none,none,-1,-1,-1,1212910,31420,10:19:57.318384,hand
6,287,hand2,8,gabor,90,0.01848883281796313,4,4,-1,3,0.517595233596694,-1,1,-1,incongruent,CR,4,2,2.0287052439343825,1215610,31420,10:19:57.318384,hand
6,288,hand2,8,cue,yellow,-1,-1,-1,3,3,-1,0.24044438505370636,-1,1,none,none,-1,-1,-1,1221577,31420,10:19:57.318384,hand
6,289,hand2,9,cue,yellow,-1,-1,-1,3,3,-1,0.22508282684884762,-1,1,none,none,-1,-1,-1,1244624,31420,10:19:57.318384,hand
6,290,hand2,9,cue,blue,-1,-1,-1,4,4,-1,0.16486114119106787,-1,1,none,none,-1,-1,-1,1247359,31420,10:19:57.318384,hand
6,291,hand2,9,gabor,0,0.01848883281796313,3,3,-1,4,0.35467670265461493,-1,1,-1,incongruent,hit,3,1,0.7856174651369656,1250059,31420,10:19:57.318384,hand
6,292,hand2,9,cue,yellow,-1,-1,-1,3,3,-1,0.3474208095449285,-1,1,none,none,-1,-1,-1,1254441,31420,10:19:57.318384,hand
6,293,hand2,9,gabor,0,0.01848883281796313,3,3,-1,4,0.4422615838548154,-1,1,-1,incongruent,hit,3,2,2.1613023130075817,1257225,31420,10:19:57.318384,hand
6,294,hand2,9,cue,yellow,-1,-1,-1,3,3,-1,0.24508913966110413,-1,1,none,none,-1,-1,-1,1263057,31420,10:19:57.318384,hand
6,295,hand2,9,cue,yellow,-1,-1,-1,3,3,-1,0.26987575588645996,-1,1,none,none,-1,-1,-1,1265843,31420,10:19:57.318384,hand
6,296,hand2,9,cue,blue,-1,-1,-1,4,4,-1,0.5556975042118211,-1,1,none,none,-1,-1,-1,1268441,31420,10:19:57.318384,hand
6,297,hand2,9,gabor,0,0.01848883281796313,3,3,-1,3,0.34749376782656327,-1,1,-1,congruent,hit,c,2,1.6024092360576105,1271324,31420,10:19:57.318384,hand
6,298,hand2,9,gabor,90,0.01848883281796313,4,4,-1,3,0.3843127406662461,-1,1,-1,incongruent,CR,c,2,1.1941531233060232,1276725,31420,10:19:57.318384,hand
6,299,hand2,9,cue,blue,-1,-1,-1,4,4,-1,0.24496088668092852,-1,1,none,none,-1,-1,-1,1281741,31420,10:19:57.318384,hand
6,300,hand2,9,cue,blue,-1,-1,-1,4,4,-1,0.21979719133651088,-1,1,none,none,-1,-1,-1,1284425,31420,10:19:57.318384,hand
6,301,hand2,9,cue,yellow,-1,-1,-1,3,3,-1,0.2207030260024112,-1,1,none,none,-1,-1,-1,1286974,31420,10:19:57.318384,hand
6,302,hand2,9,cue,yellow,-1,-1,-1,3,3,-1,0.17065978862137854,-1,1,none,none,-1,-1,-1,1289524,31420,10:19:57.318384,hand
6,303,hand2,9,gabor,90,0.01848883281796313,3,4,-1,4,0.34939490705073695,-1,0,-1,incongruent,FA,c,1,1.9713312352068897,1292124,31420,10:19:57.318384,hand
6,304,hand2,9,gabor,0,0.01848883281796313,3,3,-1,3,0.49809847678443475,-1,1,-1,congruent,hit,q,1,1.2429207427312576,1297790,31420,10:19:57.318384,hand
6,305,hand2,9,gabor,90,0.01848883281796313,4,4,-1,3,0.7648201309566502,-1,1,-1,incongruent,CR,4,3,1.8556428238998706,1302773,31420,10:19:57.318384,hand
6,306,hand2,9,cue,yellow,-1,-1,-1,3,3,-1,0.2524590780840299,-1,1,none,none,-1,-1,-1,1308739,31420,10:19:57.318384,hand
6,307,hand2,9,cue,blue,-1,-1,-1,4,4,-1,0.2082421354816688,-1,1,none,none,-1,-1,-1,1311423,31420,10:19:57.318384,hand
6,308,hand2,9,cue,blue,-1,-1,-1,4,4,-1,0.4091442838343937,-1,1,none,none,-1,-1,-1,1314157,31420,10:19:57.318384,hand
6,309,hand2,9,cue,blue,-1,-1,-1,4,4,-1,0.20298529929004872,-1,1,none,none,-1,-1,-1,1316890,31420,10:19:57.318384,hand
6,310,hand2,9,cue,yellow,-1,-1,-1,3,3,-1,0.17478615543677734,-1,1,none,none,-1,-1,-1,1319523,31420,10:19:57.318384,hand
6,311,hand2,9,cue,yellow,-1,-1,-1,3,3,-1,0.12963342687271506,-1,1,none,none,-1,-1,-1,1322023,31420,10:19:57.318384,hand
6,312,hand2,9,gabor,0,0.01848883281796313,3,3,-1,4,0.5773780175932188,-1,1,-1,incongruent,hit,4,3,1.7993340060857008,1324691,31420,10:19:57.318384,hand
6,313,hand2,9,gabor,90,0.01848883281796313,4,4,-1,4,0.6552264241072407,-1,1,-1,congruent,CR,q,3,1.4611320514186446,1330405,31420,10:19:57.318384,hand
6,314,hand2,9,cue,blue,-1,-1,-1,4,4,-1,0.41960189353630994,-1,1,none,none,-1,-1,-1,1335957,31420,10:19:57.318384,hand
6,315,hand2,9,gabor,90,0.01848883281796313,4,4,-1,3,0.4336409868874398,-1,1,-1,incongruent,CR,4,2,1.570557186237238,1338907,31420,10:19:57.318384,hand
6,316,hand2,9,cue,yellow,-1,-1,-1,3,3,-1,0.4494257031255984,-1,1,none,none,-1,-1,-1,1344255,31420,10:19:57.318384,hand
6,317,hand2,9,cue,blue,-1,-1,-1,4,4,-1,0.2902806513102405,-1,1,none,none,-1,-1,-1,1347038,31420,10:19:57.318384,hand
6,318,hand2,9,cue,yellow,-1,-1,-1,3,3,-1,0.22917463447902264,-1,1,none,none,-1,-1,-1,1349755,31420,10:19:57.318384,hand
6,319,hand2,9,gabor,90,0.01848883281796313,4,4,-1,4,0.4148511574248914,-1,1,-1,congruent,CR,3,2,1.2287967873780872,1352523,31420,10:19:57.318384,hand
6,320,hand2,9,cue,blue,-1,-1,-1,4,4,-1,0.24268190035672887,-1,1,none,none,-1,-1,-1,1357405,31420,10:19:57.318384,hand
6,321,hand2,9,cue,yellow,-1,-1,-1,3,3,-1,0.2503045048279091,-1,1,none,none,-1,-1,-1,1360071,31420,10:19:57.318384,hand
6,322,hand2,9,cue,blue,-1,-1,-1,4,4,-1,0.2572674128377912,-1,1,none,none,-1,-1,-1,1362856,31420,10:19:57.318384,hand
6,323,hand2,9,cue,blue,-1,-1,-1,4,4,-1,0.2902361083588403,-1,1,none,none,-1,-1,-1,1365639,31420,10:19:57.318384,hand
6,324,hand2,9,gabor,0,0.01848883281796313,4,3,-1,3,0.4549977958922682,-1,0,-1,incongruent,miss,3,1,1.172864280700196,1368354,31420,10:19:57.318384,hand
6,325,hand2,10,cue,blue,-1,-1,-1,4,4,-1,0.21900885790364555,-1,1,none,none,-1,-1,-1,1422286,31420,10:19:57.318384,hand
6,326,hand2,10,cue,yellow,-1,-1,-1,3,3,-1,0.23074938139052392,-1,1,none,none,-1,-1,-1,1425204,31420,10:19:57.318384,hand
6,327,hand2,10,gabor,0,0.01848883281796313,4,3,-1,3,0.3685145847439344,-1,0,-1,incongruent,miss,4,1,1.6494531200805795,1427970,31420,10:19:57.318384,hand
6,328,hand2,10,gabor,0,0.01848883281796313,3,3,-1,4,0.3992403890897549,-1,1,-1,incongruent,hit,4,2,1.2472352651147958,1433335,31420,10:19:57.318384,hand
6,329,hand2,10,cue,blue,-1,-1,-1,4,4,-1,0.20106880042749253,-1,1,none,none,-1,-1,-1,1438335,31420,10:19:57.318384,hand
6,330,hand2,10,gabor,90,0.01848883281796313,4,4,-1,3,0.3498591521174603,-1,1,-1,incongruent,CR,3,2,1.406823826485379,1440869,31420,10:19:57.318384,hand
6,331,hand2,10,gabor,0,0.01848883281796313,3,3,-1,4,0.5794964956985496,-1,1,-1,incongruent,hit,4,3,1.019416118711888,1445969,31420,10:19:57.318384,hand
6,332,hand2,10,cue,yellow,-1,-1,-1,3,3,-1,0.2052589097420423,-1,1,none,none,-1,-1,-1,1451019,31420,10:19:57.318384,hand
6,333,hand2,10,gabor,90,0.01848883281796313,4,4,-1,3,0.37612106159667746,-1,1,-1,incongruent,CR,c,3,1.4298870912989514,1453752,31420,10:19:57.318384,hand
6,334,hand2,10,cue,blue,-1,-1,-1,4,4,-1,0.3119081739387184,-1,1,none,none,-1,-1,-1,1458902,31420,10:19:57.318384,hand
6,335,hand2,10,gabor,90,0.01848883281796313,4,4,-1,4,0.3523762128352246,-1,1,-1,congruent,CR,q,1,1.6503232435870814,1465301,31420,10:19:57.318384,hand
6,336,hand2,10,gabor,0,0.01848883281796313,3,3,-1,3,0.42922125098084507,-1,1,-1,congruent,hit,4,3,1.7820544130545386,1470551,31420,10:19:57.318384,hand
6,337,hand2,10,cue,yellow,-1,-1,-1,4,3,-1,0.22880792311570985,-1,0,none,none,-1,-1,-1,1476203,31420,10:19:57.318384,hand
6,338,hand2,10,cue,yellow,-1,-1,-1,4,3,-1,0.29374079381705087,-1,0,none,none,-1,-1,-1,1478768,31420,10:19:57.318384,hand
6,339,hand2,10,cue,yellow,-1,-1,-1,3,3,-1,0.1915719360977164,-1,1,none,none,-1,-1,-1,1481384,31420,10:19:57.318384,hand
6,340,hand2,10,cue,blue,-1,-1,-1,4,4,-1,0.1953623108265674,-1,1,none,none,-1,-1,-1,1484001,31420,10:19:57.318384,hand
6,341,hand2,10,cue,yellow,-1,-1,-1,3,3,-1,0.20128690729143273,-1,1,none,none,-1,-1,-1,1486534,31420,10:19:57.318384,hand
6,342,hand2,10,cue,yellow,-1,-1,-1,3,3,-1,0.20716465685745789,-1,1,none,none,-1,-1,-1,1489167,31420,10:19:57.318384,hand
6,343,hand2,10,gabor,90,0.01848883281796313,4,4,-1,3,0.5797691292773379,-1,1,-1,incongruent,CR,c,2,3.3777937262020714,1491902,31420,10:19:57.318384,hand
6,344,hand2,10,cue,blue,-1,-1,-1,4,4,-1,0.22651933701672533,-1,1,none,none,-1,-1,-1,1499200,31420,10:19:57.318384,hand
6,345,hand2,10,cue,blue,-1,-1,-1,4,4,-1,0.18431450702519214,-1,1,none,none,-1,-1,-1,1501951,31420,10:19:57.318384,hand
6,346,hand2,10,cue,blue,-1,-1,-1,4,4,-1,0.23524476351485646,-1,1,none,none,-1,-1,-1,1504667,31420,10:19:57.318384,hand
6,347,hand2,10,cue,yellow,-1,-1,-1,3,3,-1,0.16915224012609542,-1,1,none,none,-1,-1,-1,1507233,31420,10:19:57.318384,hand
6,348,hand2,10,cue,yellow,-1,-1,-1,3,3,-1,0.2328594116952445,-1,1,none,none,-1,-1,-1,1509734,31420,10:19:57.318384,hand
6,349,hand2,10,cue,yellow,-1,-1,-1,3,3,-1,0.22774810807641188,-1,1,none,none,-1,-1,-1,1512300,31420,10:19:57.318384,hand
6,350,hand2,10,cue,blue,-1,-1,-1,4,4,-1,0.18269406518902542,-1,1,none,none,-1,-1,-1,1514967,31420,10:19:57.318384,hand
6,351,hand2,10,gabor,0,0.01848883281796313,3,3,-1,3,0.5524128455726895,-1,1,-1,congruent,hit,3,2,1.8582662501130471,1517684,31420,10:19:57.318384,hand
6,352,hand2,10,cue,blue,-1,-1,-1,4,4,-1,0.19627467333884852,-1,1,none,none,-1,-1,-1,1523533,31420,10:19:57.318384,hand
6,353,hand2,10,cue,yellow,-1,-1,-1,3,3,-1,0.16683831062437093,-1,1,none,none,-1,-1,-1,1528899,31420,10:19:57.318384,hand
6,354,hand2,10,cue,yellow,-1,-1,-1,3,3,-1,0.18767634784671827,-1,1,none,none,-1,-1,-1,1531499,31420,10:19:57.318384,hand
6,355,hand2,10,gabor,90,0.01848883281796313,4,4,-1,4,0.40652700147529686,-1,1,-1,congruent,CR,q,2,2.0694294047989388,1534016,31420,10:19:57.318384,hand
6,356,hand2,10,cue,blue,-1,-1,-1,4,4,-1,0.20030504241549352,-1,1,none,none,-1,-1,-1,1539933,31420,10:19:57.318384,hand
6,357,hand2,10,cue,blue,-1,-1,-1,4,4,-1,0.2171027267968384,-1,1,none,none,-1,-1,-1,1542465,31420,10:19:57.318384,hand
6,358,hand2,10,gabor,90,0.01848883281796313,3,4,-1,4,0.28385725059342803,-1,0,-1,incongruent,FA,4,1,1.7098188023473995,1545116,31420,10:19:57.318384,hand
6,359,hand2,10,gabor,0,0.01848883281796313,4,3,-1,4,0.6095530038073775,-1,0,-1,congruent,miss,4,1,1.4714829116346664,1550550,31420,10:19:57.318384,hand
6,360,hand2,10,cue,blue,-1,-1,-1,4,4,-1,0.2562417729932349,-1,1,none,none,-1,-1,-1,1555965,31420,10:19:57.318384,hand
6,361,hand2,11,gabor,90,0.01848883281796313,4,4,-1,4,0.42862184109799273,-1,1,-1,congruent,CR,c,3,3.4475161161008145,1584564,31420,10:19:57.318384,hand
6,362,hand2,11,cue,yellow,-1,-1,-1,3,3,-1,0.21119809786250698,-1,1,none,none,-1,-1,-1,1591981,31420,10:19:57.318384,hand
6,363,hand2,11,cue,yellow,-1,-1,-1,3,3,-1,0.2651288596853192,-1,1,none,none,-1,-1,-1,1594731,31420,10:19:57.318384,hand
6,364,hand2,11,gabor,0,0.01848883281796313,4,3,-1,3,0.32588237281834154,-1,0,-1,incongruent,miss,c,1,1.0378327089638333,1597331,31420,10:19:57.318384,hand
6,365,hand2,11,gabor,0,0.01848883281796313,3,3,-1,4,0.6246096731929356,-1,1,-1,incongruent,hit,4,2,1.73653228519197,1602131,31420,10:19:57.318384,hand
6,366,hand2,11,cue,yellow,-1,-1,-1,3,3,-1,0.17727864073367527,-1,1,none,none,-1,-1,-1,1607830,31420,10:19:57.318384,hand
6,367,hand2,11,gabor,90,0.01848883281796313,4,4,-1,3,0.3672428066975044,-1,1,-1,incongruent,CR,q,2,1.172102442643336,1610347,31420,10:19:57.318384,hand
6,368,hand2,11,cue,yellow,-1,-1,-1,3,3,-1,0.22496762956234306,-1,1,none,none,-1,-1,-1,1615130,31420,10:19:57.318384,hand
6,369,hand2,11,cue,blue,-1,-1,-1,4,4,-1,0.24270225187683536,-1,1,none,none,-1,-1,-1,1617680,31420,10:19:57.318384,hand
6,370,hand2,11,cue,blue,-1,-1,-1,4,4,-1,0.2025894046146277,-1,1,none,none,-1,-1,-1,1620246,31420,10:19:57.318384,hand
6,371,hand2,11,cue,yellow,-1,-1,-1,3,3,-1,0.15347120144633664,-1,1,none,none,-1,-1,-1,1622980,31420,10:19:57.318384,hand
6,372,hand2,11,cue,yellow,-1,-1,-1,3,3,-1,0.190308221860505,-1,1,none,none,-1,-1,-1,1625664,31420,10:19:57.318384,hand
6,373,hand2,11,cue,yellow,-1,-1,-1,3,3,-1,0.1721312419649621,-1,1,none,none,-1,-1,-1,1628179,31420,10:19:57.318384,hand
6,374,hand2,11,cue,blue,-1,-1,-1,4,4,-1,0.18603785843606602,-1,1,none,none,-1,-1,-1,1630880,31420,10:19:57.318384,hand
6,375,hand2,11,gabor,0,0.01848883281796313,3,3,-1,4,0.5527069826457591,-1,1,-1,incongruent,hit,4,3,1.839505987954908,1633496,31420,10:19:57.318384,hand
6,376,hand2,11,cue,blue,-1,-1,-1,4,4,-1,0.17653369827803544,-1,1,none,none,-1,-1,-1,1639129,31420,10:19:57.318384,hand
6,377,hand2,11,cue,blue,-1,-1,-1,4,4,-1,0.173410315840556,-1,1,none,none,-1,-1,-1,1641629,31420,10:19:57.318384,hand
6,378,hand2,11,gabor,0,0.01848883281796313,3,3,-1,3,0.40813093169981585,-1,1,-1,congruent,hit,3,2,2.120185329395099,1644229,31420,10:19:57.318384,hand
6,379,hand2,11,cue,yellow,-1,-1,-1,3,3,-1,0.1488971011758622,-1,1,none,none,-1,-1,-1,1649996,31420,10:19:57.318384,hand
6,380,hand2,11,gabor,90,0.01848883281796313,4,4,-1,3,0.4098143480523504,-1,1,-1,incongruent,CR,4,2,1.1266824563745104,1652479,31420,10:19:57.318384,hand
6,381,hand2,11,cue,blue,-1,-1,-1,4,4,-1,0.2465076022535868,-1,1,none,none,-1,-1,-1,1657245,31420,10:19:57.318384,hand
6,382,hand2,11,cue,yellow,-1,-1,-1,3,3,-1,0.1673198352837062,-1,1,none,none,-1,-1,-1,1660030,31420,10:19:57.318384,hand
6,383,hand2,11,cue,blue,-1,-1,-1,4,4,-1,0.19425910480913444,-1,1,none,none,-1,-1,-1,1662729,31420,10:19:57.318384,hand
6,384,hand2,11,cue,yellow,-1,-1,-1,3,3,-1,0.1600973493877973,-1,1,none,none,-1,-1,-1,1665261,31420,10:19:57.318384,hand
6,385,hand2,11,cue,blue,-1,-1,-1,4,4,-1,0.2699537060507282,-1,1,none,none,-1,-1,-1,1667762,31420,10:19:57.318384,hand
6,386,hand2,11,cue,blue,-1,-1,-1,4,4,-1,0.26675352542042674,-1,1,none,none,-1,-1,-1,1670462,31420,10:19:57.318384,hand
6,387,hand2,11,cue,yellow,-1,-1,-1,3,3,-1,0.13657598336249066,-1,1,none,none,-1,-1,-1,1673161,31420,10:19:57.318384,hand
6,388,hand2,11,gabor,90,0.01848883281796313,4,4,-1,3,0.38625919082369364,-1,1,-1,incongruent,CR,c,1,1.5943135547277052,1675829,31420,10:19:57.318384,hand
6,389,hand2,11,gabor,0,0.01848883281796313,3,3,-1,4,0.44899601724591776,-1,1,-1,incongruent,hit,4,3,2.278028651870045,1681245,31420,10:19:57.318384,hand
6,390,hand2,11,cue,blue,-1,-1,-1,4,4,-1,0.22876798805646104,-1,1,none,none,-1,-1,-1,1687311,31420,10:19:57.318384,hand
6,391,hand2,11,gabor,90,0.01848883281796313,4,4,-1,4,0.402510072082805,-1,1,-1,congruent,CR,3,2,1.774552381742069,1689978,31420,10:19:57.318384,hand
6,392,hand2,11,cue,yellow,-1,-1,-1,3,3,-1,0.512254687377208,-1,1,none,none,-1,-1,-1,1695595,31420,10:19:57.318384,hand
6,393,hand2,11,gabor,0,0.01848883281796313,3,3,-1,3,0.48126392927133566,-1,1,-1,congruent,hit,3,3,1.5690803570196294,1698444,31420,10:19:57.318384,hand
6,394,hand2,11,gabor,90,0.01848883281796313,4,4,-1,4,0.36179243906462943,-1,1,-1,congruent,CR,q,2,1.0556376016229478,1703744,31420,10:19:57.318384,hand
6,395,hand2,11,cue,blue,-1,-1,-1,4,4,-1,0.35154026452346443,-1,1,none,none,-1,-1,-1,1708594,31420,10:19:57.318384,hand
6,396,hand2,11,cue,blue,-1,-1,-1,4,4,-1,0.26140030749957077,-1,1,none,none,-1,-1,-1,1711377,31420,10:19:57.318384,hand
