start,accuracy_gabor,delta,orientation,pressed_gabor,expected_gabor,rt_gabor,trial,participant,response condition,date,expName,
0.0425,1,0.0425,0,4,4,0.5152955488247244,0,8,8,2021_Apr_14_1424,Motor,
0.0005,1,0.0005,0,4,4,0.8739457850406325,1,8,8,2021_Apr_14_1424,Motor,
0.0425,1,0.038000000000000006,90,3,3,0.5397776428671932,2,8,8,2021_Apr_14_1424,Motor,
0.0005,1,0.0005,0,4,4,0.7045329659267736,3,8,8,2021_Apr_14_1424,Motor,
0.0005,0,0.0005,0,3,4,0.5842698053020285,4,8,8,2021_Apr_14_1424,Motor,
0.0425,1,0.03350000000000001,0,4,4,0.8572085205796611,5,8,8,2021_Apr_14_1424,Motor,
0.0005,1,0.004999999999999999,90,3,3,1.339731486463279,6,8,8,2021_Apr_14_1424,Motor,
0.0425,1,0.02900000000000001,0,4,4,0.634550334096275,7,8,8,2021_Apr_14_1424,Motor,
0.0425,1,0.024500000000000008,0,4,4,0.565577229608607,8,8,8,2021_Apr_14_1424,Motor,
0.0005,1,0.004999999999999999,90,3,3,0.7301893218955229,9,8,8,2021_Apr_14_1424,Motor,
0.0005,1,0.004999999999999999,0,4,4,1.2138427740846964,10,8,8,2021_Apr_14_1424,Motor,
0.0425,1,0.020000000000000007,90,3,3,0.6576634798766463,11,8,8,2021_Apr_14_1424,Motor,
0.0005,0,0.0005,0,3,4,0.5664124224476836,12,8,8,2021_Apr_14_1424,Motor,
0.0425,0,0.015500000000000007,0,3,4,0.40119553534714214,13,8,8,2021_Apr_14_1424,Motor,
0.0005,1,0.004999999999999999,90,3,3,0.3310869525994349,14,8,8,2021_Apr_14_1424,Motor,
0.0005,1,0.004999999999999999,90,3,3,0.6304834249731357,15,8,8,2021_Apr_14_1424,Motor,
0.0425,1,0.020000000000000007,90,3,3,0.8321872951619298,16,8,8,2021_Apr_14_1424,Motor,
0.0005,1,0.004999999999999999,90,3,3,0.8160509855479177,17,8,8,2021_Apr_14_1424,Motor,
0.0425,1,0.020000000000000007,0,4,4,0.6336383419184131,18,8,8,2021_Apr_14_1424,Motor,
0.0425,1,0.020000000000000007,0,4,4,0.6974758744472638,19,8,8,2021_Apr_14_1424,Motor,
0.0005,0,0.0005,0,3,4,0.6100455842479278,20,8,8,2021_Apr_14_1424,Motor,
0.0005,1,0.004999999999999999,90,3,3,0.793864423818377,21,8,8,2021_Apr_14_1424,Motor,
0.0425,1,0.015500000000000007,0,4,4,0.7187719478115469,22,8,8,2021_Apr_14_1424,Motor,
0.0005,1,0.004999999999999999,90,3,3,0.9365852478458692,23,8,8,2021_Apr_14_1424,Motor,
0.0425,0,0.015500000000000007,0,3,4,0.7472253357955196,24,8,8,2021_Apr_14_1424,Motor,
0.0005,1,0.004999999999999999,90,3,3,0.5902010184363462,25,8,8,2021_Apr_14_1424,Motor,
0.0425,1,0.020000000000000007,0,4,4,0.5628351091254444,26,8,8,2021_Apr_14_1424,Motor,
0.0425,1,0.020000000000000007,0,4,4,0.5484882241653395,27,8,8,2021_Apr_14_1424,Motor,
0.0005,1,0.0005,0,4,4,0.689267560841472,28,8,8,2021_Apr_14_1424,Motor,
0.0425,1,0.020000000000000007,90,3,3,0.697099941671695,29,8,8,2021_Apr_14_1424,Motor,
0.0005,1,0.0005,90,3,3,0.6288955985910434,30,8,8,2021_Apr_14_1424,Motor,
0.0005,1,0.0005,90,3,3,0.578699165076614,31,8,8,2021_Apr_14_1424,Motor,
0.0425,1,0.015500000000000007,90,3,3,0.4945466707667947,32,8,8,2021_Apr_14_1424,Motor,
0.0005,0,0.0005,0,3,4,0.9063597150598071,33,8,8,2021_Apr_14_1424,Motor,
0.0425,1,0.015500000000000007,90,3,3,0.8069199278543238,34,8,8,2021_Apr_14_1424,Motor,
0.0005,1,0.004999999999999999,90,3,3,0.7138663898804225,35,8,8,2021_Apr_14_1424,Motor,
0.0425,1,0.015500000000000007,90,3,3,0.7803473557414691,36,8,8,2021_Apr_14_1424,Motor,
0.0425,1,0.011000000000000006,0,4,4,0.7314015994998044,37,8,8,2021_Apr_14_1424,Motor,
0.0005,0,0.004999999999999999,0,3,4,0.7131141403333459,38,8,8,2021_Apr_14_1424,Motor,
0.0005,1,0.009499999999999998,90,3,3,0.7495366119728715,39,8,8,2021_Apr_14_1424,Motor,
0.0425,1,0.011000000000000006,90,3,3,0.7742725278385478,40,8,8,2021_Apr_14_1424,Motor,
0.0425,1,0.011000000000000006,90,3,3,0.49206182807756704,41,8,8,2021_Apr_14_1424,Motor,
0.0005,1,0.009499999999999998,90,3,3,0.6820599426537228,42,8,8,2021_Apr_14_1424,Motor,
0.0425,1,0.006500000000000007,90,3,3,0.8356121617889585,43,8,8,2021_Apr_14_1424,Motor,
0.0005,1,0.009499999999999998,90,3,3,0.8193303174230095,44,8,8,2021_Apr_14_1424,Motor,
0.0425,1,0.006500000000000007,90,3,3,1.4740174388280138,45,8,8,2021_Apr_14_1424,Motor,
0.0425,1,0.006500000000000007,0,4,4,0.7375570667118154,46,8,8,2021_Apr_14_1424,Motor,
0.0005,0,0.004999999999999998,90,4,3,0.805299845747868,47,8,8,2021_Apr_14_1424,Motor,
0.0005,1,0.009499999999999998,90,3,3,0.7690159969188244,48,8,8,2021_Apr_14_1424,Motor,
0.0425,1,0.002000000000000007,0,4,4,0.8158682031134958,49,8,8,2021_Apr_14_1424,Motor,
0.0425,0,0.002000000000000007,0,3,4,1.391500386493135,50,8,8,2021_Apr_14_1424,Motor,
0.0005,1,0.009499999999999998,90,3,3,0.7913550053399376,51,8,8,2021_Apr_14_1424,Motor,
0.0425,0,0.006500000000000007,0,3,4,2.6900021465407917,52,8,8,2021_Apr_14_1424,Motor,
0.0005,1,0.009499999999999998,90,3,3,0.6685179147898452,53,8,8,2021_Apr_14_1424,Motor,
0.0005,1,0.004999999999999998,0,4,4,0.8263609131281555,54,8,8,2021_Apr_14_1424,Motor,
0.0425,1,0.011000000000000006,0,4,4,1.0461798279611685,55,8,8,2021_Apr_14_1424,Motor,
0.0005,1,0.004999999999999998,90,3,3,0.6509512174416159,56,8,8,2021_Apr_14_1424,Motor,
0.0425,1,0.011000000000000006,90,3,3,1.395341889548945,57,8,8,2021_Apr_14_1424,Motor,
0.0425,1,0.011000000000000006,90,3,3,0.6572944590443512,58,8,8,2021_Apr_14_1424,Motor,
0.0005,1,0.004999999999999998,0,4,4,0.9142896310531796,59,8,8,2021_Apr_14_1424,Motor,
0.0005,0,0.0005,90,4,3,1.3309656096389517,60,8,8,2021_Apr_14_1424,Motor,
0.0425,1,0.006500000000000007,90,3,3,0.5716731773318315,61,8,8,2021_Apr_14_1424,Motor,
0.0425,0,0.006500000000000007,0,3,4,1.3904973870940012,62,8,8,2021_Apr_14_1424,Motor,
0.0005,1,0.004999999999999999,0,4,4,0.9201052611788327,63,8,8,2021_Apr_14_1424,Motor,
0.0005,1,0.004999999999999999,0,4,4,3.586985046016707,64,8,8,2021_Apr_14_1424,Motor,
0.0425,0,0.011000000000000006,0,3,4,1.154586706265036,65,8,8,2021_Apr_14_1424,Motor,
0.0425,1,0.015500000000000007,90,3,3,0.7392877398688142,66,8,8,2021_Apr_14_1424,Motor,
0.0005,0,0.004999999999999999,0,3,4,0.7091820140558411,67,8,8,2021_Apr_14_1424,Motor,
0.0005,1,0.009499999999999998,90,3,3,0.5481042274586798,68,8,8,2021_Apr_14_1424,Motor,
0.0425,1,0.015500000000000007,0,4,4,0.6446164237695484,69,8,8,2021_Apr_14_1424,Motor,
0.0005,1,0.009499999999999998,90,3,3,0.6734131048087875,70,8,8,2021_Apr_14_1424,Motor,
0.0425,1,0.015500000000000007,90,3,3,0.9553073912829859,71,8,8,2021_Apr_14_1424,Motor,
0.0005,0,0.009499999999999998,0,3,4,0.5649470910138916,72,8,8,2021_Apr_14_1424,Motor,
0.0425,1,0.011000000000000006,90,3,3,0.9277529395894817,73,8,8,2021_Apr_14_1424,Motor,
0.0005,1,0.013999999999999999,90,3,3,0.6685348106457241,74,8,8,2021_Apr_14_1424,Motor,
0.0425,1,0.011000000000000006,90,3,3,0.6472698410143494,75,8,8,2021_Apr_14_1424,Motor,
0.0425,1,0.011000000000000006,90,3,3,0.5801057450134977,76,8,8,2021_Apr_14_1424,Motor,
0.0005,1,0.013999999999999999,90,3,3,1.5727886877648416,77,8,8,2021_Apr_14_1424,Motor,
0.0425,0,0.006500000000000007,0,3,4,0.8787204000946076,78,8,8,2021_Apr_14_1424,Motor,
0.0005,1,0.013999999999999999,90,3,3,0.5853480680543726,79,8,8,2021_Apr_14_1424,Motor,
0.0425,1,0.011000000000000006,90,3,3,0.6962294211352855,80,8,8,2021_Apr_14_1424,Motor,
0.0005,0,0.009499999999999998,0,3,4,0.5609320214462059,81,8,8,2021_Apr_14_1424,Motor,
0.0425,1,0.011000000000000006,90,3,3,0.5346773986057087,82,8,8,2021_Apr_14_1424,Motor,
0.0005,1,0.013999999999999999,0,4,4,1.0913585765101743,83,8,8,2021_Apr_14_1424,Motor,
0.0005,1,0.013999999999999999,0,4,4,0.8452992467136937,84,8,8,2021_Apr_14_1424,Motor,
0.0425,1,0.011000000000000006,90,3,3,0.5336763191917271,85,8,8,2021_Apr_14_1424,Motor,
0.0005,1,0.013999999999999999,0,4,4,1.3773574037822982,86,8,8,2021_Apr_14_1424,Motor,
0.0425,1,0.006500000000000007,0,4,4,0.6070189222064073,87,8,8,2021_Apr_14_1424,Motor,
0.0005,1,0.009499999999999998,0,4,4,0.6598273013205471,88,8,8,2021_Apr_14_1424,Motor,
0.0425,1,0.006500000000000007,90,3,3,0.700518664350966,89,8,8,2021_Apr_14_1424,Motor,
0.0005,1,0.009499999999999998,90,3,3,0.6433369467413286,90,8,8,2021_Apr_14_1424,Motor,
0.0005,1,0.009499999999999998,0,4,4,0.5182231397175201,91,8,8,2021_Apr_14_1424,Motor,
0.0425,1,0.006500000000000007,0,4,4,2.415816209959303,92,8,8,2021_Apr_14_1424,Motor,
0.0425,1,0.002000000000000007,0,4,4,0.7346221798798069,93,8,8,2021_Apr_14_1424,Motor,
0.0005,0,0.004999999999999998,0,3,4,1.3111225798129453,94,8,8,2021_Apr_14_1424,Motor,
0.0005,1,0.009499999999999998,0,4,4,1.6322985774058907,95,8,8,2021_Apr_14_1424,Motor,
0.0425,0,0.002000000000000007,0,3,4,0.5597462396162882,96,8,8,2021_Apr_14_1424,Motor,
