start,accuracy_gabor,delta,orientation,pressed_gabor,expected_gabor,rt_gabor,trial,participant,response condition,date,expName,
0.025,0,0.025,0,n,x,0.593839662577011,0,8,2,2021_Jun_08_1131,Motor,
0.0165,0,0.0165,90,x,n,0.6726021884569491,1,8,2,2021_Jun_08_1131,Motor,
0.025,1,0.02665,90,n,n,0.6244746963384387,2,8,2,2021_Jun_08_1131,Motor,
0.025,1,0.025,90,n,n,0.49730359479872277,3,8,2,2021_Jun_08_1131,Motor,
0.0165,1,0.01815,0,x,x,0.4911612282903661,4,8,2,2021_Jun_08_1131,Motor,
0.0165,1,0.0165,0,x,x,0.7060019783366442,5,8,2,2021_Jun_08_1131,Motor,
0.025,1,0.025,0,x,x,0.7837442324107542,6,8,2,2021_Jun_08_1131,Motor,
0.0165,0,0.0165,0,n,x,0.6676640268360643,7,8,2,2021_Jun_08_1131,Motor,
0.025,1,0.025,0,x,x,0.5222973740965244,8,8,2,2021_Jun_08_1131,Motor,
0.025,1,0.023350000000000003,0,x,x,0.5682322610173287,9,8,2,2021_Jun_08_1131,Motor,
0.0165,1,0.01815,0,x,x,0.5151554714539088,10,8,2,2021_Jun_08_1131,Motor,
0.025,1,0.023350000000000003,0,x,x,0.6688954952915083,11,8,2,2021_Jun_08_1131,Motor,
0.0165,1,0.01815,90,n,n,0.608810432961036,12,8,2,2021_Jun_08_1131,Motor,
0.0165,1,0.01815,90,n,n,0.5384685094286397,13,8,2,2021_Jun_08_1131,Motor,
0.025,1,0.023350000000000003,0,x,x,0.5463319366190262,14,8,2,2021_Jun_08_1131,Motor,
0.025,1,0.021700000000000004,0,x,x,0.7123732052132254,15,8,2,2021_Jun_08_1131,Motor,
0.0165,1,0.0165,0,x,x,0.8970773455876042,16,8,2,2021_Jun_08_1131,Motor,
0.025,1,0.021700000000000004,90,n,n,0.5879269244233001,17,8,2,2021_Jun_08_1131,Motor,
0.0165,1,0.0165,0,x,x,0.8616262602681672,18,8,2,2021_Jun_08_1131,Motor,
0.025,1,0.021700000000000004,90,n,n,0.6024134784947819,19,8,2,2021_Jun_08_1131,Motor,
0.0165,1,0.0165,0,x,x,1.0762416058933013,20,8,2,2021_Jun_08_1131,Motor,
0.0165,1,0.01485,90,n,n,0.5962284886627458,21,8,2,2021_Jun_08_1131,Motor,
0.025,1,0.020050000000000005,0,x,x,0.7020261054422008,22,8,2,2021_Jun_08_1131,Motor,
0.025,0,0.020050000000000005,0,n,x,0.5888243181798316,23,8,2,2021_Jun_08_1131,Motor,
0.0165,1,0.01485,90,n,n,0.8746052542664984,24,8,2,2021_Jun_08_1131,Motor,
0.025,1,0.021700000000000004,0,x,x,0.5063305235216831,25,8,2,2021_Jun_08_1131,Motor,
0.0165,1,0.01485,90,n,n,0.848169577853696,26,8,2,2021_Jun_08_1131,Motor,
0.025,1,0.021700000000000004,90,n,n,0.5520864692825853,27,8,2,2021_Jun_08_1131,Motor,
0.0165,1,0.0132,90,n,n,0.6050219490916788,28,8,2,2021_Jun_08_1131,Motor,
0.0165,0,0.0132,0,n,x,0.8786314303615654,29,8,2,2021_Jun_08_1131,Motor,
0.025,1,0.021700000000000004,0,x,x,0.6694530544409645,30,8,2,2021_Jun_08_1131,Motor,
0.025,1,0.020050000000000005,0,x,x,0.8293389007340011,31,8,2,2021_Jun_08_1131,Motor,
0.0165,1,0.01485,0,x,x,0.6541520492974087,32,8,2,2021_Jun_08_1131,Motor,
0.0165,1,0.01485,90,n,n,0.5858157259317522,33,8,2,2021_Jun_08_1131,Motor,
0.025,1,0.020050000000000005,0,x,x,0.5327224246302649,34,8,2,2021_Jun_08_1131,Motor,
0.0165,1,0.01485,90,n,n,0.5176425999761705,35,8,2,2021_Jun_08_1131,Motor,
0.025,1,0.020050000000000005,0,x,x,0.46737318985287857,36,8,2,2021_Jun_08_1131,Motor,
0.0165,1,0.0132,0,x,x,0.4822341379804129,37,8,2,2021_Jun_08_1131,Motor,
0.025,1,0.018400000000000007,90,n,n,0.3781629577970307,38,8,2,2021_Jun_08_1131,Motor,
0.025,1,0.018400000000000007,90,n,n,0.5458527122264059,39,8,2,2021_Jun_08_1131,Motor,
0.0165,1,0.0132,0,x,x,0.5614920159987378,40,8,2,2021_Jun_08_1131,Motor,
0.025,1,0.018400000000000007,90,n,n,0.4693484545005049,41,8,2,2021_Jun_08_1131,Motor,
0.0165,1,0.0132,90,n,n,0.5651898773066932,42,8,2,2021_Jun_08_1131,Motor,
0.0165,1,0.01155,90,n,n,0.4571182486197358,43,8,2,2021_Jun_08_1131,Motor,
0.025,1,0.016750000000000008,90,n,n,0.40086966939816193,44,8,2,2021_Jun_08_1131,Motor,
0.0165,1,0.01155,90,n,n,0.4827052985019691,45,8,2,2021_Jun_08_1131,Motor,
0.025,1,0.016750000000000008,90,n,n,0.4895672695874964,46,8,2,2021_Jun_08_1131,Motor,
0.0165,1,0.01155,0,x,x,0.6003510472273774,47,8,2,2021_Jun_08_1131,Motor,
0.025,1,0.016750000000000008,0,x,x,0.5462912332659471,48,8,2,2021_Jun_08_1131,Motor,
0.025,0,0.015100000000000008,0,n,x,0.5831116408517119,49,8,2,2021_Jun_08_1131,Motor,
0.0165,0,0.009899999999999999,0,n,x,0.9379465849124244,50,8,2,2021_Jun_08_1131,Motor,
0.025,1,0.016750000000000008,0,x,x,0.6496831282292987,51,8,2,2021_Jun_08_1131,Motor,
0.0165,1,0.01155,90,n,n,1.0224106522982765,52,8,2,2021_Jun_08_1131,Motor,
0.0165,1,0.01155,90,n,n,0.5272316957798466,53,8,2,2021_Jun_08_1131,Motor,
0.025,1,0.016750000000000008,90,n,n,0.45725879038946005,54,8,2,2021_Jun_08_1131,Motor,
0.0165,1,0.01155,90,n,n,0.5467677697015461,55,8,2,2021_Jun_08_1131,Motor,
0.0165,0,0.009899999999999999,90,x,n,0.5876516007938335,56,8,2,2021_Jun_08_1131,Motor,
0.025,0,0.016750000000000008,0,n,x,0.7333158488108893,57,8,2,2021_Jun_08_1131,Motor,
0.0165,0,0.01155,0,n,x,0.606181610684871,58,8,2,2021_Jun_08_1131,Motor,
0.025,1,0.018400000000000007,0,x,x,0.6080873724367848,59,8,2,2021_Jun_08_1131,Motor,
0.0165,1,0.0132,90,n,n,0.6868426024338987,60,8,2,2021_Jun_08_1131,Motor,
0.025,1,0.018400000000000007,0,x,x,0.5936161781246483,61,8,2,2021_Jun_08_1131,Motor,
0.025,1,0.018400000000000007,90,n,n,0.5805857289433334,62,8,2,2021_Jun_08_1131,Motor,
0.0165,0,0.0132,0,n,x,0.5263508137595636,63,8,2,2021_Jun_08_1131,Motor,
0.025,1,0.016750000000000008,90,n,n,0.5281037459390063,64,8,2,2021_Jun_08_1131,Motor,
0.0165,0,0.01485,0,n,x,0.7420067828679748,65,8,2,2021_Jun_08_1131,Motor,
0.025,1,0.016750000000000008,90,n,n,0.4668044948793977,66,8,2,2021_Jun_08_1131,Motor,
0.0165,1,0.0165,0,x,x,0.6907359166398237,67,8,2,2021_Jun_08_1131,Motor,
0.025,1,0.016750000000000008,90,n,n,0.6724309271776292,68,8,2,2021_Jun_08_1131,Motor,
0.0165,1,0.0165,90,n,n,0.40816862554856925,69,8,2,2021_Jun_08_1131,Motor,
0.0165,1,0.0165,90,n,n,0.3541840743891953,70,8,2,2021_Jun_08_1131,Motor,
0.0165,0,0.01485,0,n,x,0.3878603398807172,71,8,2,2021_Jun_08_1131,Motor,
0.025,0,0.015100000000000008,0,n,x,0.4945676382212696,72,8,2,2021_Jun_08_1131,Motor,
0.025,1,0.016750000000000008,0,x,x,0.6132939457984321,73,8,2,2021_Jun_08_1131,Motor,
0.0165,0,0.0165,0,n,x,0.47014408987161005,74,8,2,2021_Jun_08_1131,Motor,
0.0165,1,0.01815,0,x,x,0.49406614218241884,75,8,2,2021_Jun_08_1131,Motor,
0.025,1,0.016750000000000008,90,n,n,0.5408761512135243,76,8,2,2021_Jun_08_1131,Motor,
0.0165,0,0.01815,0,n,x,0.5363573109370918,77,8,2,2021_Jun_08_1131,Motor,
0.025,0,0.016750000000000008,0,n,x,0.4653080706302717,78,8,2,2021_Jun_08_1131,Motor,
0.025,1,0.018400000000000007,90,n,n,0.7041534316758771,79,8,2,2021_Jun_08_1131,Motor,
0.0165,1,0.019799999999999998,0,x,x,0.7031343118524092,80,8,2,2021_Jun_08_1131,Motor,
0.025,1,0.018400000000000007,90,n,n,0.4607842384320975,81,8,2,2021_Jun_08_1131,Motor,
0.0165,1,0.019799999999999998,90,n,n,0.4285974853009975,82,8,2,2021_Jun_08_1131,Motor,
0.025,0,0.018400000000000007,90,x,n,0.45446984265436186,83,8,2,2021_Jun_08_1131,Motor,
0.0165,0,0.019799999999999998,0,n,x,0.3902664456909406,84,8,2,2021_Jun_08_1131,Motor,
0.0165,1,0.021449999999999997,90,n,n,0.6051724747030676,85,8,2,2021_Jun_08_1131,Motor,
0.025,1,0.020050000000000005,90,n,n,0.52704238678416,86,8,2,2021_Jun_08_1131,Motor,
0.025,1,0.020050000000000005,0,x,x,0.5766494074214279,87,8,2,2021_Jun_08_1131,Motor,
0.0165,0,0.021449999999999997,0,n,x,0.4675966743052413,88,8,2,2021_Jun_08_1131,Motor,
0.0165,1,0.023099999999999996,0,x,x,0.6594519331774791,89,8,2,2021_Jun_08_1131,Motor,
0.025,1,0.020050000000000005,0,x,x,0.547217810559232,90,8,2,2021_Jun_08_1131,Motor,
0.025,1,0.018400000000000007,0,x,x,0.5800784729945008,91,8,2,2021_Jun_08_1131,Motor,
0.025,1,0.018400000000000007,0,x,x,0.7157419837421912,92,8,2,2021_Jun_08_1131,Motor,
0.0165,1,0.023099999999999996,90,n,n,0.5014384411697392,93,8,2,2021_Jun_08_1131,Motor,
0.0165,1,0.023099999999999996,90,n,n,0.5392971682740608,94,8,2,2021_Jun_08_1131,Motor,
0.025,1,0.018400000000000007,0,x,x,0.7041895271031535,95,8,2,2021_Jun_08_1131,Motor,
