start,accuracy_gabor,delta,orientation,pressed_gabor,expected_gabor,rt_gabor,trial,participant,response condition,date,expName,
0.0005,0,0.0005,0,3,4,0.9864354673841262,0,16,8,2021_Apr_26_0943,Motor,
0.0425,1,0.0425,0,4,4,0.5002691786939977,1,16,8,2021_Apr_26_0943,Motor,
0.0005,0,0.004999999999999999,90,4,3,0.6648610062600255,2,16,8,2021_Apr_26_0943,Motor,
0.0425,1,0.038000000000000006,90,3,3,0.46179044918653744,3,16,8,2021_Apr_26_0943,Motor,
0.0425,1,0.03350000000000001,0,4,4,0.43741153774385566,4,16,8,2021_Apr_26_0943,Motor,
0.0005,1,0.009499999999999998,90,3,3,0.8962344934257089,5,16,8,2021_Apr_26_0943,Motor,
0.0425,1,0.02900000000000001,90,3,3,0.4711948078079331,6,16,8,2021_Apr_26_0943,Motor,
0.0005,1,0.004999999999999998,0,4,4,0.5698977581753297,7,16,8,2021_Apr_26_0943,Motor,
0.0005,0,0.004999999999999998,90,4,3,1.3444538821249807,8,16,8,2021_Apr_26_0943,Motor,
0.0425,1,0.024500000000000008,0,4,4,0.5623592187751001,9,16,8,2021_Apr_26_0943,Motor,
0.0425,1,0.020000000000000007,90,3,3,0.5081540792668875,10,16,8,2021_Apr_26_0943,Motor,
0.0005,1,0.009499999999999998,90,3,3,1.4140321585982747,11,16,8,2021_Apr_26_0943,Motor,
0.0005,0,0.009499999999999998,90,4,3,0.8846774732376161,12,16,8,2021_Apr_26_0943,Motor,
0.0425,0,0.015500000000000007,90,4,3,0.5913721508723029,13,16,8,2021_Apr_26_0943,Motor,
0.0425,0,0.020000000000000007,90,4,3,0.5912515772488405,14,16,8,2021_Apr_26_0943,Motor,
0.0005,0,0.013999999999999999,90,4,3,1.2471409843569745,15,16,8,2021_Apr_26_0943,Motor,
0.0005,1,0.0185,0,4,4,0.9558185989037611,16,16,8,2021_Apr_26_0943,Motor,
0.0425,0,0.024500000000000008,90,4,3,1.4974591220857292,17,16,8,2021_Apr_26_0943,Motor,
0.0425,1,0.02900000000000001,0,4,4,0.7261005031070908,18,16,8,2021_Apr_26_0943,Motor,
0.0005,1,0.0185,90,3,3,3.1638630099323564,19,16,8,2021_Apr_26_0943,Motor,
0.0005,0,0.0185,0,3,4,2.6306326889684897,20,16,8,2021_Apr_26_0943,Motor,
0.0425,1,0.02900000000000001,90,3,3,0.581163712100988,21,16,8,2021_Apr_26_0943,Motor,
0.0005,0,0.023,0,3,4,1.5110340224973697,22,16,8,2021_Apr_26_0943,Motor,
0.0425,1,0.02900000000000001,90,3,3,0.6047155038479559,23,16,8,2021_Apr_26_0943,Motor,
0.0005,1,0.0275,90,3,3,0.720541828679643,24,16,8,2021_Apr_26_0943,Motor,
0.0425,1,0.024500000000000008,90,3,3,0.4793342953623778,25,16,8,2021_Apr_26_0943,Motor,
0.0005,1,0.0275,0,4,4,0.5341231033655731,26,16,8,2021_Apr_26_0943,Motor,
0.0425,1,0.024500000000000008,90,3,3,0.383869169171021,27,16,8,2021_Apr_26_0943,Motor,
0.0425,1,0.024500000000000008,0,4,4,0.5377195764717726,28,16,8,2021_Apr_26_0943,Motor,
0.0005,1,0.0275,90,3,3,0.4263978668452637,29,16,8,2021_Apr_26_0943,Motor,
0.0005,1,0.023,90,3,3,0.887173040045127,30,16,8,2021_Apr_26_0943,Motor,
0.0425,1,0.020000000000000007,0,4,4,0.695017851807961,31,16,8,2021_Apr_26_0943,Motor,
0.0425,1,0.020000000000000007,90,3,3,0.7977504187435898,32,16,8,2021_Apr_26_0943,Motor,
0.0005,1,0.023,0,4,4,0.6994280048752444,33,16,8,2021_Apr_26_0943,Motor,
0.0005,1,0.023,90,3,3,0.5312205045813698,34,16,8,2021_Apr_26_0943,Motor,
0.0425,1,0.020000000000000007,0,4,4,0.7322151985740675,35,16,8,2021_Apr_26_0943,Motor,
0.0005,1,0.0185,0,4,4,0.6778925573819379,36,16,8,2021_Apr_26_0943,Motor,
0.0425,0,0.015500000000000007,90,4,3,0.54773217910315,37,16,8,2021_Apr_26_0943,Motor,
0.0005,1,0.0185,0,4,4,0.6423747935082247,38,16,8,2021_Apr_26_0943,Motor,
0.0425,1,0.020000000000000007,0,4,4,0.927182747373763,39,16,8,2021_Apr_26_0943,Motor,
0.0425,1,0.020000000000000007,0,4,4,0.6678615231137428,40,16,8,2021_Apr_26_0943,Motor,
0.0005,1,0.0185,0,4,4,0.6204227142275158,41,16,8,2021_Apr_26_0943,Motor,
0.0425,0,0.020000000000000007,90,4,3,0.7851416432879432,42,16,8,2021_Apr_26_0943,Motor,
0.0005,1,0.013999999999999999,90,3,3,0.7200791178004238,43,16,8,2021_Apr_26_0943,Motor,
0.0425,1,0.024500000000000008,0,4,4,1.4377578989162885,44,16,8,2021_Apr_26_0943,Motor,
0.0005,1,0.013999999999999999,90,3,3,0.7585179120949306,45,16,8,2021_Apr_26_0943,Motor,
0.0425,1,0.024500000000000008,0,4,4,0.6213730954934817,46,16,8,2021_Apr_26_0943,Motor,
0.0005,1,0.013999999999999999,0,4,4,1.102107427258261,47,16,8,2021_Apr_26_0943,Motor,
0.0425,1,0.024500000000000008,0,4,4,0.8738696222819726,48,16,8,2021_Apr_26_0943,Motor,
0.0005,1,0.009499999999999998,0,4,4,1.1256745787027285,49,16,8,2021_Apr_26_0943,Motor,
0.0005,1,0.009499999999999998,0,4,4,0.7833123033478842,50,16,8,2021_Apr_26_0943,Motor,
0.0425,1,0.020000000000000007,0,4,4,1.1080328144571467,51,16,8,2021_Apr_26_0943,Motor,
0.0425,1,0.020000000000000007,0,4,4,1.2219764244007365,52,16,8,2021_Apr_26_0943,Motor,
0.0005,0,0.009499999999999998,90,4,3,1.1975936730336798,53,16,8,2021_Apr_26_0943,Motor,
0.0005,1,0.013999999999999999,90,3,3,1.4832583140121187,54,16,8,2021_Apr_26_0943,Motor,
0.0425,1,0.020000000000000007,0,4,4,0.5541575244467367,55,16,8,2021_Apr_26_0943,Motor,
0.0005,0,0.013999999999999999,0,3,4,1.3379290827417663,56,16,8,2021_Apr_26_0943,Motor,
0.0425,1,0.015500000000000007,90,3,3,1.8005044124570304,57,16,8,2021_Apr_26_0943,Motor,
0.0005,0,0.0185,90,4,3,1.4262865090402101,58,16,8,2021_Apr_26_0943,Motor,
0.0425,1,0.015500000000000007,90,3,3,0.7162215298412775,59,16,8,2021_Apr_26_0943,Motor,
0.0005,1,0.023,0,4,4,1.1806442471406626,60,16,8,2021_Apr_26_0943,Motor,
0.0425,1,0.015500000000000007,90,3,3,0.719533464556207,61,16,8,2021_Apr_26_0943,Motor,
0.0425,1,0.011000000000000006,0,4,4,0.6872420050856363,62,16,8,2021_Apr_26_0943,Motor,
0.0005,0,0.023,90,4,3,1.5002273235190842,63,16,8,2021_Apr_26_0943,Motor,
0.0425,1,0.011000000000000006,0,4,4,0.7108352680152166,64,16,8,2021_Apr_26_0943,Motor,
0.0005,1,0.0275,0,4,4,0.7915961720564155,65,16,8,2021_Apr_26_0943,Motor,
0.0425,1,0.011000000000000006,0,4,4,0.8983806271210142,66,16,8,2021_Apr_26_0943,Motor,
0.0005,1,0.0275,90,3,3,0.8460620424250465,67,16,8,2021_Apr_26_0943,Motor,
0.0005,1,0.0275,90,3,3,0.69493836537481,68,16,8,2021_Apr_26_0943,Motor,
0.0425,0,0.006500000000000007,90,4,3,1.5346011739416099,69,16,8,2021_Apr_26_0943,Motor,
0.0005,1,0.023,0,4,4,0.6144577758084324,70,16,8,2021_Apr_26_0943,Motor,
0.0425,1,0.011000000000000006,0,4,4,1.1632597578236528,71,16,8,2021_Apr_26_0943,Motor,
0.0005,0,0.023,90,4,3,2.222932565553265,72,16,8,2021_Apr_26_0943,Motor,
0.0425,1,0.011000000000000006,0,4,4,0.7806216683857201,73,16,8,2021_Apr_26_0943,Motor,
0.0425,1,0.011000000000000006,0,4,4,0.903121781663458,74,16,8,2021_Apr_26_0943,Motor,
0.0005,0,0.0275,90,4,3,1.8981264241319877,75,16,8,2021_Apr_26_0943,Motor,
0.0425,1,0.006500000000000007,0,4,4,0.8298084108166677,76,16,8,2021_Apr_26_0943,Motor,
0.0005,1,0.032,0,4,4,0.6105702364395711,77,16,8,2021_Apr_26_0943,Motor,
0.0425,1,0.006500000000000007,90,3,3,1.1644850776701787,78,16,8,2021_Apr_26_0943,Motor,
0.0005,1,0.032,0,4,4,0.5752095254697451,79,16,8,2021_Apr_26_0943,Motor,
0.0425,1,0.006500000000000007,0,4,4,0.563713176085912,80,16,8,2021_Apr_26_0943,Motor,
0.0005,1,0.032,0,4,4,0.5413970719810095,81,16,8,2021_Apr_26_0943,Motor,
0.0425,0,0.002000000000000007,90,4,3,0.6942994019700564,82,16,8,2021_Apr_26_0943,Motor,
0.0005,1,0.0275,0,4,4,0.588962982361636,83,16,8,2021_Apr_26_0943,Motor,
0.0425,1,0.006500000000000007,0,4,4,0.6997217590846958,84,16,8,2021_Apr_26_0943,Motor,
0.0005,1,0.0275,0,4,4,1.1174586766544508,85,16,8,2021_Apr_26_0943,Motor,
0.0005,1,0.0275,90,3,3,0.5372165463875263,86,16,8,2021_Apr_26_0943,Motor,
0.0425,0,0.006500000000000007,0,3,4,0.5721226103189565,87,16,8,2021_Apr_26_0943,Motor,
0.0425,1,0.011000000000000006,0,4,4,1.1847998132261637,88,16,8,2021_Apr_26_0943,Motor,
0.0005,1,0.023,0,4,4,0.8115388189469286,89,16,8,2021_Apr_26_0943,Motor,
0.0425,1,0.011000000000000006,0,4,4,2.2572595688993715,90,16,8,2021_Apr_26_0943,Motor,
0.0005,0,0.023,90,4,3,1.0060171613897637,91,16,8,2021_Apr_26_0943,Motor,
0.0005,1,0.0275,0,4,4,0.7478283308078062,92,16,8,2021_Apr_26_0943,Motor,
0.0425,0,0.011000000000000006,0,3,4,1.3815602226848114,93,16,8,2021_Apr_26_0943,Motor,
0.0425,0,0.015500000000000007,90,4,3,1.0701784566422248,94,16,8,2021_Apr_26_0943,Motor,
0.0005,1,0.0275,0,4,4,0.8919694894975692,95,16,8,2021_Apr_26_0943,Motor,
0.0425,1,0.020000000000000007,0,4,4,0.5478151214683749,96,16,8,2021_Apr_26_0943,Motor,
0.0005,1,0.0275,90,3,3,0.5785237641396179,97,16,8,2021_Apr_26_0943,Motor,
0.0425,1,0.020000000000000007,90,3,3,0.6472637851363743,98,16,8,2021_Apr_26_0943,Motor,
0.0005,1,0.023,90,3,3,1.4882471436721971,99,16,8,2021_Apr_26_0943,Motor,
