subject_id,trial,effector_order,block,condition,stim1,gabor.contrast,pressed_gabor,expected_gabor,pressed_cue,expected_cue,rt_gabor,rt_cue,accuracy_gabor,accuracy_cue,congruency,SDT,pressed_conf,conf,rt_conf,trial_start_time_rel2bloc,bloc_start_time_rel2exp,exp_start_date,effector
4,1,hand2,1,cue,yellow,-1,-1,-1,3,3,-1,0.21290350079561904,-1,1,none,none,-1,-1,-1,0,28390,11:37:45.690218,hand
4,2,hand2,1,gabor,0,0.018569302941607035,4,4,-1,4,0.5338452228088499,-1,1,-1,congruent,hit,4,3,4.059738315833783,2833,28390,11:37:45.690218,hand
4,3,hand2,1,gabor,0,0.018569302941607035,4,4,-1,3,0.43520410044129676,-1,1,-1,incongruent,hit,4,2,1.7921602268324932,10850,28390,11:37:45.690218,hand
4,4,hand2,1,cue,yellow,-1,-1,-1,3,3,-1,0.18208453395436663,-1,1,none,none,-1,-1,-1,16517,28390,11:37:45.690218,hand
4,5,hand2,1,gabor,0,0.018569302941607035,4,4,-1,4,0.5197495745351262,-1,1,-1,congruent,hit,3,2,1.1087386261006031,19132,28390,11:37:45.690218,hand
4,6,hand2,1,cue,blue,-1,-1,-1,3,4,-1,0.2635350171722166,-1,0,none,none,-1,-1,-1,23998,28390,11:37:45.690218,hand
4,7,hand2,1,cue,yellow,-1,-1,-1,3,3,-1,0.2814863482481087,-1,1,none,none,-1,-1,-1,26599,28390,11:37:45.690218,hand
4,8,hand2,1,cue,blue,-1,-1,-1,4,4,-1,0.21419602428068174,-1,1,none,none,-1,-1,-1,29216,28390,11:37:45.690218,hand
4,9,hand2,1,cue,yellow,-1,-1,-1,3,3,-1,0.2651596953855915,-1,1,none,none,-1,-1,-1,31966,28390,11:37:45.690218,hand
4,10,hand2,1,gabor,90,0.018569302941607035,3,3,-1,4,0.49775440364282986,-1,1,-1,incongruent,CR,3,3,2.2898850629444496,34766,28390,11:37:45.690218,hand
4,11,hand2,1,cue,yellow,-1,-1,-1,3,3,-1,0.3555737483329722,-1,1,none,none,-1,-1,-1,40999,28390,11:37:45.690218,hand
4,12,hand2,1,cue,blue,-1,-1,-1,4,4,-1,0.15851345207465783,-1,1,none,none,-1,-1,-1,43899,28390,11:37:45.690218,hand
4,13,hand2,1,gabor,90,0.018569302941607035,3,3,-1,3,0.49726365943115525,-1,1,-1,congruent,CR,c,3,2.3393304221472135,46499,28390,11:37:45.690218,hand
4,14,hand2,1,cue,blue,-1,-1,-1,4,4,-1,0.20176038165936916,-1,1,none,none,-1,-1,-1,56447,28390,11:37:45.690218,hand
4,15,hand2,1,cue,yellow,-1,-1,-1,3,3,-1,0.3435942904716285,-1,1,none,none,-1,-1,-1,58980,28390,11:37:45.690218,hand
4,16,hand2,1,gabor,90,0.018569302941607035,3,3,-1,4,0.42334828861567075,-1,1,-1,incongruent,CR,q,4,1.4323640815173349,61664,28390,11:37:45.690218,hand
4,17,hand2,1,cue,blue,-1,-1,-1,4,4,-1,0.26520462267217226,-1,1,none,none,-1,-1,-1,66965,28390,11:37:45.690218,hand
4,18,hand2,1,cue,yellow,-1,-1,-1,3,3,-1,0.1657709368837459,-1,1,none,none,-1,-1,-1,73230,28390,11:37:45.690218,hand
4,19,hand2,1,cue,yellow,-1,-1,-1,3,3,-1,0.25565507824194356,-1,1,none,none,-1,-1,-1,75730,28390,11:37:45.690218,hand
4,20,hand2,1,cue,yellow,-1,-1,-1,3,3,-1,0.18051131092397554,-1,1,none,none,-1,-1,-1,78430,28390,11:37:45.690218,hand
4,21,hand2,1,cue,blue,-1,-1,-1,4,4,-1,0.3442989192872119,-1,1,none,none,-1,-1,-1,80947,28390,11:37:45.690218,hand
4,22,hand2,1,cue,blue,-1,-1,-1,4,4,-1,0.19023442059915396,-1,1,none,none,-1,-1,-1,83831,28390,11:37:45.690218,hand
4,23,hand2,1,cue,blue,-1,-1,-1,4,4,-1,0.1601216185499652,-1,1,none,none,-1,-1,-1,86564,28390,11:37:45.690218,hand
4,24,hand2,1,cue,yellow,-1,-1,-1,3,3,-1,0.2559472976045072,-1,1,none,none,-1,-1,-1,89163,28390,11:37:45.690218,hand
4,25,hand2,1,cue,blue,-1,-1,-1,4,4,-1,0.134720421718157,-1,1,none,none,-1,-1,-1,91846,28390,11:37:45.690218,hand
4,26,hand2,1,cue,yellow,-1,-1,-1,3,3,-1,0.19861585556918726,-1,1,none,none,-1,-1,-1,94313,28390,11:37:45.690218,hand
4,27,hand2,1,gabor,0,0.018569302941607035,4,4,-1,3,0.4902327310264809,-1,1,-1,incongruent,hit,3,3,2.4713310150345933,96946,28390,11:37:45.690218,hand
4,28,hand2,1,cue,blue,-1,-1,-1,4,4,-1,0.17506858131127956,-1,1,none,none,-1,-1,-1,103347,28390,11:37:45.690218,hand
4,29,hand2,1,gabor,0,0.018569302941607035,4,4,-1,3,0.3388408299188086,-1,1,-1,incongruent,hit,4,3,2.0617162684393406,106064,28390,11:37:45.690218,hand
4,30,hand2,1,cue,blue,-1,-1,-1,4,4,-1,0.1896526698328671,-1,1,none,none,-1,-1,-1,111695,28390,11:37:45.690218,hand
4,31,hand2,1,gabor,0,0.018569302941607035,4,4,-1,4,0.5284623962452315,-1,1,-1,congruent,hit,4,3,2.01622489447891,114229,28390,11:37:45.690218,hand
4,32,hand2,1,gabor,90,0.018569302941607035,3,3,-1,3,0.4901432604456204,-1,1,-1,congruent,CR,4,4,2.7680039382421455,120013,28390,11:37:45.690218,hand
4,33,hand2,1,cue,yellow,-1,-1,-1,3,3,-1,0.2467621633904855,-1,1,none,none,-1,-1,-1,126512,28390,11:37:45.690218,hand
4,34,hand2,1,cue,blue,-1,-1,-1,4,4,-1,0.16256074783632357,-1,1,none,none,-1,-1,-1,129195,28390,11:37:45.690218,hand
4,35,hand2,1,gabor,90,0.018569302941607035,3,3,-1,3,0.38435716348249116,-1,1,-1,congruent,CR,4,4,1.1023531914506748,131695,28390,11:37:45.690218,hand
4,36,hand2,1,gabor,90,0.018569302941607035,3,3,-1,4,0.4392740518424034,-1,1,-1,incongruent,CR,c,3,3.995029582890311,136429,28390,11:37:45.690218,hand
4,37,hand2,2,cue,blue,-1,-1,-1,4,4,-1,0.22852667682400352,-1,1,none,none,-1,-1,-1,147745,28390,11:37:45.690218,hand
4,38,hand2,2,cue,blue,-1,-1,-1,4,4,-1,0.2023743879135509,-1,1,none,none,-1,-1,-1,150427,28390,11:37:45.690218,hand
4,39,hand2,2,gabor,90,0.018569302941607035,3,3,-1,4,0.3200596880124067,-1,1,-1,incongruent,CR,3,4,1.2012400699177306,153061,28390,11:37:45.690218,hand
4,40,hand2,2,gabor,90,0.018569302941607035,3,3,-1,3,0.2797595276560969,-1,1,-1,congruent,CR,c,3,2.464750511479906,160661,28390,11:37:45.690218,hand
4,41,hand2,2,gabor,0,0.018569302941607035,4,4,-1,4,0.5424194227189219,-1,1,-1,congruent,hit,3,1,0.9432207412000935,166760,28390,11:37:45.690218,hand
4,42,hand2,2,cue,blue,-1,-1,-1,4,4,-1,0.20925171875660453,-1,1,none,none,-1,-1,-1,171678,28390,11:37:45.690218,hand
4,43,hand2,2,cue,blue,-1,-1,-1,4,4,-1,0.2980625971504196,-1,1,none,none,-1,-1,-1,174310,28390,11:37:45.690218,hand
4,44,hand2,2,cue,blue,-1,-1,-1,4,4,-1,0.13684697996541217,-1,1,none,none,-1,-1,-1,176944,28390,11:37:45.690218,hand
4,45,hand2,2,cue,blue,-1,-1,-1,4,4,-1,0.40341977292155207,-1,1,none,none,-1,-1,-1,179510,28390,11:37:45.690218,hand
4,46,hand2,2,cue,yellow,-1,-1,-1,3,3,-1,0.17150665384633612,-1,1,none,none,-1,-1,-1,182444,28390,11:37:45.690218,hand
4,47,hand2,2,cue,yellow,-1,-1,-1,3,3,-1,0.16833601617054228,-1,1,none,none,-1,-1,-1,185043,28390,11:37:45.690218,hand
4,48,hand2,2,cue,yellow,-1,-1,-1,3,3,-1,0.3262711734241748,-1,1,none,none,-1,-1,-1,187744,28390,11:37:45.690218,hand
4,49,hand2,2,cue,blue,-1,-1,-1,4,4,-1,0.15515388939729746,-1,1,none,none,-1,-1,-1,190594,28390,11:37:45.690218,hand
4,50,hand2,2,gabor,0,0.018569302941607035,4,4,-1,3,0.26480718898073974,-1,1,-1,incongruent,hit,q,3,2.280694168822265,195909,28390,11:37:45.690218,hand
4,51,hand2,2,gabor,0,0.018569302941607035,4,4,-1,4,0.40639726166227774,-1,1,-1,congruent,hit,3,2,1.7872109293875837,201792,28390,11:37:45.690218,hand
4,52,hand2,2,cue,yellow,-1,-1,-1,3,3,-1,0.21715776927248953,-1,1,none,none,-1,-1,-1,207326,28390,11:37:45.690218,hand
4,53,hand2,2,cue,yellow,-1,-1,-1,3,3,-1,0.5237492550513707,-1,1,none,none,-1,-1,-1,213643,28390,11:37:45.690218,hand
4,54,hand2,2,cue,blue,-1,-1,-1,4,4,-1,0.21760397018988442,-1,1,none,none,-1,-1,-1,216693,28390,11:37:45.690218,hand
4,55,hand2,2,gabor,90,0.018569302941607035,3,3,-1,3,0.5752501336301066,-1,1,-1,congruent,CR,q,4,1.5283022707862983,219443,28390,11:37:45.690218,hand
4,56,hand2,2,gabor,0,0.018569302941607035,4,4,-1,3,0.4679549406191654,-1,1,-1,incongruent,hit,4,2,2.574921050852936,224977,28390,11:37:45.690218,hand
4,57,hand2,2,cue,yellow,-1,-1,-1,3,3,-1,0.29067916233998403,-1,1,none,none,-1,-1,-1,231358,28390,11:37:45.690218,hand
4,58,hand2,2,gabor,90,0.018569302941607035,4,3,-1,4,0.3736625492283565,-1,0,-1,congruent,FA,3,4,0.033566443234121834,234075,28390,11:37:45.690218,hand
4,59,hand2,2,cue,yellow,-1,-1,-1,3,3,-1,0.34825636047480657,-1,1,none,none,-1,-1,-1,241491,28390,11:37:45.690218,hand
4,60,hand2,2,cue,yellow,-1,-1,-1,3,3,-1,0.17400799014467339,-1,1,none,none,-1,-1,-1,244275,28390,11:37:45.690218,hand
4,61,hand2,2,cue,blue,-1,-1,-1,4,4,-1,0.1508032384508624,-1,1,none,none,-1,-1,-1,246775,28390,11:37:45.690218,hand
4,62,hand2,2,cue,blue,-1,-1,-1,4,4,-1,0.18577356340210827,-1,1,none,none,-1,-1,-1,249258,28390,11:37:45.690218,hand
4,63,hand2,2,cue,yellow,-1,-1,-1,3,3,-1,0.18361398167871812,-1,1,none,none,-1,-1,-1,251975,28390,11:37:45.690218,hand
4,64,hand2,2,gabor,90,0.018569302941607035,3,3,-1,3,0.4073399667004196,-1,1,-1,congruent,CR,4,3,2.020297149842918,254692,28390,11:37:45.690218,hand
4,65,hand2,2,cue,blue,-1,-1,-1,4,4,-1,0.16910323599313415,-1,1,none,none,-1,-1,-1,260458,28390,11:37:45.690218,hand
4,66,hand2,2,cue,yellow,-1,-1,-1,3,3,-1,0.1438725324551342,-1,1,none,none,-1,-1,-1,263057,28390,11:37:45.690218,hand
4,67,hand2,2,cue,blue,-1,-1,-1,4,4,-1,0.13074493281601463,-1,1,none,none,-1,-1,-1,265624,28390,11:37:45.690218,hand
4,68,hand2,2,gabor,90,0.018569302941607035,3,3,-1,4,0.3544847416178527,-1,1,-1,incongruent,CR,c,4,1.0486140123985024,268090,28390,11:37:45.690218,hand
4,69,hand2,2,cue,yellow,-1,-1,-1,3,3,-1,0.1933639709277486,-1,1,none,none,-1,-1,-1,272840,28390,11:37:45.690218,hand
4,70,hand2,2,cue,yellow,-1,-1,-1,3,3,-1,0.18518950867201056,-1,1,none,none,-1,-1,-1,275558,28390,11:37:45.690218,hand
4,71,hand2,2,gabor,0,0.018569302941607035,4,4,-1,3,0.4260535256780713,-1,1,-1,incongruent,hit,q,3,1.7629405946072438,278174,28390,11:37:45.690218,hand
4,72,hand2,2,gabor,0,0.018569302941607035,3,4,-1,4,0.3986413527645709,-1,0,-1,incongruent,miss,q,1,1.082702303348924,283791,28390,11:37:45.690218,hand
4,73,hand2,3,cue,blue,-1,-1,-1,4,4,-1,0.6764820628768575,-1,1,none,none,-1,-1,-1,305289,28390,11:37:45.690218,hand
4,74,hand2,3,cue,yellow,-1,-1,-1,3,3,-1,0.2584232903054726,-1,1,none,none,-1,-1,-1,308573,28390,11:37:45.690218,hand
4,75,hand2,3,gabor,0,0.018569302941607035,4,4,-1,4,0.4312228516309915,-1,1,-1,congruent,hit,4,3,2.5570914458448897,311256,28390,11:37:45.690218,hand
4,76,hand2,3,gabor,0,0.018569302941607035,4,4,-1,3,0.4426005910436288,-1,1,-1,incongruent,hit,3,4,0.8256291356146903,317690,28390,11:37:45.690218,hand
4,77,hand2,3,cue,blue,-1,-1,-1,4,4,-1,0.7196184022159287,-1,1,none,none,-1,-1,-1,322390,28390,11:37:45.690218,hand
4,78,hand2,3,cue,yellow,-1,-1,-1,3,3,-1,0.2653797238936022,-1,1,none,none,-1,-1,-1,325438,28390,11:37:45.690218,hand
4,79,hand2,3,cue,yellow,-1,-1,-1,3,3,-1,0.1732042909015945,-1,1,none,none,-1,-1,-1,328240,28390,11:37:45.690218,hand
4,80,hand2,3,gabor,90,0.018569302941607035,3,3,-1,4,0.34209748222838243,-1,1,-1,incongruent,CR,c,4,1.77296321952781,330839,28390,11:37:45.690218,hand
4,81,hand2,3,cue,blue,-1,-1,-1,4,4,-1,0.23769107536736556,-1,1,none,none,-1,-1,-1,336288,28390,11:37:45.690218,hand
4,82,hand2,3,gabor,90,0.018569302941607035,4,3,-1,3,0.37448391219095356,-1,0,-1,incongruent,FA,c,1,1.359460150648374,338955,28390,11:37:45.690218,hand
4,83,hand2,3,cue,yellow,-1,-1,-1,3,3,-1,0.4542548060680929,-1,1,none,none,-1,-1,-1,344022,28390,11:37:45.690218,hand
4,84,hand2,3,gabor,90,0.018569302941607035,3,3,-1,3,0.3661742840822626,-1,1,-1,congruent,CR,q,4,0.9649617081277029,347006,28390,11:37:45.690218,hand
4,85,hand2,3,gabor,90,0.018569302941607035,3,3,-1,4,0.43481818656619,-1,1,-1,incongruent,CR,c,4,1.4238209851127976,351688,28390,11:37:45.690218,hand
4,86,hand2,3,cue,yellow,-1,-1,-1,3,3,-1,0.1736512598072295,-1,1,none,none,-1,-1,-1,356787,28390,11:37:45.690218,hand
4,87,hand2,3,cue,yellow,-1,-1,-1,3,3,-1,0.23640123983932426,-1,1,none,none,-1,-1,-1,359387,28390,11:37:45.690218,hand
4,88,hand2,3,cue,blue,-1,-1,-1,4,4,-1,0.17123977808205382,-1,1,none,none,-1,-1,-1,362055,28390,11:37:45.690218,hand
4,89,hand2,3,cue,blue,-1,-1,-1,4,4,-1,0.1770434619666048,-1,1,none,none,-1,-1,-1,364555,28390,11:37:45.690218,hand
4,90,hand2,3,cue,yellow,-1,-1,-1,3,3,-1,0.1667854487814111,-1,1,none,none,-1,-1,-1,369987,28390,11:37:45.690218,hand
4,91,hand2,3,cue,yellow,-1,-1,-1,3,3,-1,0.1426368400680076,-1,1,none,none,-1,-1,-1,372688,28390,11:37:45.690218,hand
4,92,hand2,3,cue,yellow,-1,-1,-1,3,3,-1,0.17849726289114187,-1,1,none,none,-1,-1,-1,375254,28390,11:37:45.690218,hand
4,93,hand2,3,cue,blue,-1,-1,-1,4,4,-1,0.13741106701127137,-1,1,none,none,-1,-1,-1,377870,28390,11:37:45.690218,hand
4,94,hand2,3,gabor,90,0.018569302941607035,3,3,-1,4,0.2971897790039293,-1,1,-1,incongruent,CR,q,2,0.9121237627714436,380437,28390,11:37:45.690218,hand
4,95,hand2,3,cue,blue,-1,-1,-1,3,4,-1,0.3097229560771666,-1,0,none,none,-1,-1,-1,388738,28390,11:37:45.690218,hand
4,96,hand2,3,gabor,0,0.018569302941607035,4,4,-1,3,0.420519405516643,-1,1,-1,incongruent,hit,4,3,1.3546344992410013,391571,28390,11:37:45.690218,hand
4,97,hand2,3,cue,blue,-1,-1,-1,4,4,-1,0.1331921259743467,-1,1,none,none,-1,-1,-1,396587,28390,11:37:45.690218,hand
4,98,hand2,3,gabor,0,0.018569302941607035,4,4,-1,4,0.38623681364879303,-1,1,-1,congruent,hit,q,2,3.2560371521785783,399153,28390,11:37:45.690218,hand
4,99,hand2,3,gabor,90,0.018569302941607035,3,3,-1,3,0.4277096913920104,-1,1,-1,congruent,CR,4,4,1.3935446016594142,406136,28390,11:37:45.690218,hand
4,100,hand2,3,cue,yellow,-1,-1,-1,4,3,-1,0.21349216345242894,-1,0,none,none,-1,-1,-1,411286,28390,11:37:45.690218,hand
4,101,hand2,3,cue,yellow,-1,-1,-1,3,3,-1,0.18022216351437237,-1,1,none,none,-1,-1,-1,413837,28390,11:37:45.690218,hand
4,102,hand2,3,cue,blue,-1,-1,-1,4,4,-1,0.1593071674760722,-1,1,none,none,-1,-1,-1,416554,28390,11:37:45.690218,hand
4,103,hand2,3,gabor,0,0.018569302941607035,4,4,-1,4,0.36103030172671424,-1,1,-1,congruent,hit,c,3,1.6309768651353806,419036,28390,11:37:45.690218,hand
4,104,hand2,3,cue,blue,-1,-1,-1,3,4,-1,0.23667809944527107,-1,0,none,none,-1,-1,-1,424369,28390,11:37:45.690218,hand
4,105,hand2,3,cue,blue,-1,-1,-1,4,4,-1,0.22848520548268425,-1,1,none,none,-1,-1,-1,426935,28390,11:37:45.690218,hand
4,106,hand2,3,cue,blue,-1,-1,-1,4,4,-1,0.16535545547776564,-1,1,none,none,-1,-1,-1,429502,28390,11:37:45.690218,hand
4,107,hand2,3,cue,yellow,-1,-1,-1,3,3,-1,0.18825262805421517,-1,1,none,none,-1,-1,-1,432102,28390,11:37:45.690218,hand
4,108,hand2,3,gabor,0,0.018569302941607035,4,4,-1,3,0.4560672573006741,-1,1,-1,incongruent,hit,c,3,1.579987466438979,434820,28390,11:37:45.690218,hand
4,109,hand2,4,gabor,0,0.018569302941607035,4,4,-1,4,0.5221115210451899,-1,1,-1,congruent,hit,c,2,2.3529975332230606,452635,28390,11:37:45.690218,hand
4,110,hand2,4,cue,yellow,-1,-1,-1,3,3,-1,0.3127430681415717,-1,1,none,none,-1,-1,-1,458901,28390,11:37:45.690218,hand
4,111,hand2,4,gabor,0,0.018569302941607035,4,4,-1,3,0.4955034313697979,-1,1,-1,incongruent,hit,c,3,1.6464948268339867,461752,28390,11:37:45.690218,hand
4,112,hand2,4,gabor,90,0.018569302941607035,3,3,-1,3,0.2862505606308332,-1,1,-1,congruent,CR,q,4,1.4763052720827545,467218,28390,11:37:45.690218,hand
4,113,hand2,4,cue,blue,-1,-1,-1,4,4,-1,0.1609068860852858,-1,1,none,none,-1,-1,-1,475150,28390,11:37:45.690218,hand
4,114,hand2,4,gabor,0,0.018569302941607035,4,4,-1,3,0.3126105902447307,-1,1,-1,incongruent,hit,q,4,0.9066503136464235,477634,28390,11:37:45.690218,hand
4,115,hand2,4,cue,yellow,-1,-1,-1,3,3,-1,0.21544093252214225,-1,1,none,none,-1,-1,-1,482100,28390,11:37:45.690218,hand
4,116,hand2,4,cue,yellow,-1,-1,-1,3,3,-1,0.16825384147523437,-1,1,none,none,-1,-1,-1,484851,28390,11:37:45.690218,hand
4,117,hand2,4,cue,blue,-1,-1,-1,4,4,-1,0.1712482259481476,-1,1,none,none,-1,-1,-1,487350,28390,11:37:45.690218,hand
4,118,hand2,4,gabor,90,0.018569302941607035,4,3,-1,4,0.3209709055490748,-1,0,-1,congruent,FA,4,1,1.164946885963218,489950,28390,11:37:45.690218,hand
4,119,hand2,4,cue,yellow,-1,-1,-1,3,3,-1,0.22353091611785203,-1,1,none,none,-1,-1,-1,497616,28390,11:37:45.690218,hand
4,120,hand2,4,cue,blue,-1,-1,-1,4,4,-1,0.20140480330246646,-1,1,none,none,-1,-1,-1,500266,28390,11:37:45.690218,hand
4,121,hand2,4,gabor,0,0.018569302941607035,4,4,-1,4,0.5162033908191006,-1,1,-1,congruent,hit,q,3,4.416125747251499,502900,28390,11:37:45.690218,hand
4,122,hand2,4,gabor,90,0.018569302941607035,3,3,-1,4,0.46369337625856133,-1,1,-1,incongruent,CR,c,4,1.603692178197889,511082,28390,11:37:45.690218,hand
4,123,hand2,4,gabor,0,0.018569302941607035,4,4,-1,4,0.49539821703911,-1,1,-1,congruent,hit,3,4,1.0074083944136873,516600,28390,11:37:45.690218,hand
4,124,hand2,4,cue,blue,-1,-1,-1,4,4,-1,0.17726272248546593,-1,1,none,none,-1,-1,-1,521450,28390,11:37:45.690218,hand
4,125,hand2,4,cue,blue,-1,-1,-1,4,4,-1,0.22180063957966922,-1,1,none,none,-1,-1,-1,527615,28390,11:37:45.690218,hand
4,126,hand2,4,cue,yellow,-1,-1,-1,3,3,-1,0.16467463428489282,-1,1,none,none,-1,-1,-1,530165,28390,11:37:45.690218,hand
4,127,hand2,4,gabor,90,0.018569302941607035,3,3,-1,3,0.3194848491357334,-1,1,-1,congruent,CR,4,4,1.8574591584083464,532765,28390,11:37:45.690218,hand
4,128,hand2,4,cue,yellow,-1,-1,-1,3,3,-1,0.34419408895155357,-1,1,none,none,-1,-1,-1,538182,28390,11:37:45.690218,hand
4,129,hand2,4,cue,yellow,-1,-1,-1,3,3,-1,0.16519072209212027,-1,1,none,none,-1,-1,-1,540965,28390,11:37:45.690218,hand
4,130,hand2,4,cue,blue,-1,-1,-1,4,4,-1,0.14292329952149885,-1,1,none,none,-1,-1,-1,543666,28390,11:37:45.690218,hand
4,131,hand2,4,cue,yellow,-1,-1,-1,3,3,-1,0.19076663615214784,-1,1,none,none,-1,-1,-1,546131,28390,11:37:45.690218,hand
4,132,hand2,4,cue,blue,-1,-1,-1,4,4,-1,0.2035609290805951,-1,1,none,none,-1,-1,-1,548748,28390,11:37:45.690218,hand
4,133,hand2,4,cue,blue,-1,-1,-1,4,4,-1,0.1384839459824434,-1,1,none,none,-1,-1,-1,551482,28390,11:37:45.690218,hand
4,134,hand2,4,cue,yellow,-1,-1,-1,3,3,-1,0.19631227613172086,-1,1,none,none,-1,-1,-1,553948,28390,11:37:45.690218,hand
4,135,hand2,4,cue,blue,-1,-1,-1,4,4,-1,0.12719990108325874,-1,1,none,none,-1,-1,-1,556582,28390,11:37:45.690218,hand
4,136,hand2,4,cue,yellow,-1,-1,-1,3,3,-1,0.13698828972246702,-1,1,none,none,-1,-1,-1,559232,28390,11:37:45.690218,hand
4,137,hand2,4,cue,blue,-1,-1,-1,4,4,-1,0.12783694697191095,-1,1,none,none,-1,-1,-1,561698,28390,11:37:45.690218,hand
4,138,hand2,4,cue,blue,-1,-1,-1,4,4,-1,0.1946584143815926,-1,1,none,none,-1,-1,-1,564348,28390,11:37:45.690218,hand
4,139,hand2,4,gabor,0,0.018569302941607035,3,4,-1,3,0.39946002777105605,-1,0,-1,congruent,miss,c,1,1.1243625701172277,566964,28390,11:37:45.690218,hand
4,140,hand2,4,cue,blue,-1,-1,-1,4,4,-1,0.19802104901009443,-1,1,none,none,-1,-1,-1,571915,28390,11:37:45.690218,hand
4,141,hand2,4,gabor,90,0.018569302941607035,3,3,-1,3,0.40602401958676637,-1,1,-1,congruent,CR,q,4,1.5890758341884066,574547,28390,11:37:45.690218,hand
4,142,hand2,4,cue,yellow,-1,-1,-1,3,3,-1,0.22291537388719007,-1,1,none,none,-1,-1,-1,579981,28390,11:37:45.690218,hand
4,143,hand2,4,cue,yellow,-1,-1,-1,3,3,-1,0.15464394549053395,-1,1,none,none,-1,-1,-1,582731,28390,11:37:45.690218,hand
4,144,hand2,4,gabor,90,0.018569302941607035,3,3,-1,4,0.496371257595456,-1,1,-1,incongruent,CR,4,3,2.9962437716185377,585414,28390,11:37:45.690218,hand
4,145,hand2,5,cue,yellow,-1,-1,-1,3,3,-1,0.21181411008637951,-1,1,none,none,-1,-1,-1,615363,28390,11:37:45.690218,hand
4,146,hand2,5,gabor,90,0.018569302941607035,3,3,-1,3,0.3236266073981824,-1,1,-1,congruent,CR,q,4,0.9925758618355758,618180,28390,11:37:45.690218,hand
4,147,hand2,5,cue,blue,-1,-1,-1,4,4,-1,0.16037966245403368,-1,1,none,none,-1,-1,-1,622930,28390,11:37:45.690218,hand
4,148,hand2,5,cue,yellow,-1,-1,-1,3,3,-1,0.17335404852474312,-1,1,none,none,-1,-1,-1,625513,28390,11:37:45.690218,hand
4,149,hand2,5,cue,blue,-1,-1,-1,4,4,-1,0.22121504887491028,-1,1,none,none,-1,-1,-1,628214,28390,11:37:45.690218,hand
4,150,hand2,5,gabor,90,0.018569302941607035,3,3,-1,4,0.3618581925866238,-1,1,-1,incongruent,CR,3,4,1.436841450452448,630862,28390,11:37:45.690218,hand
4,151,hand2,5,cue,yellow,-1,-1,-1,3,3,-1,0.16269437771461526,-1,1,none,none,-1,-1,-1,636096,28390,11:37:45.690218,hand
4,152,hand2,5,cue,blue,-1,-1,-1,4,4,-1,0.14948997929514007,-1,1,none,none,-1,-1,-1,638695,28390,11:37:45.690218,hand
4,153,hand2,5,cue,yellow,-1,-1,-1,3,3,-1,0.3182599085785114,-1,1,none,none,-1,-1,-1,641279,28390,11:37:45.690218,hand
4,154,hand2,5,cue,blue,-1,-1,-1,4,4,-1,0.15222324791193387,-1,1,none,none,-1,-1,-1,643929,28390,11:37:45.690218,hand
4,155,hand2,5,cue,blue,-1,-1,-1,4,4,-1,0.16816821083375544,-1,1,none,none,-1,-1,-1,646613,28390,11:37:45.690218,hand
4,156,hand2,5,cue,blue,-1,-1,-1,4,4,-1,0.13583784398178977,-1,1,none,none,-1,-1,-1,649111,28390,11:37:45.690218,hand
4,157,hand2,5,cue,yellow,-1,-1,-1,3,3,-1,0.13288761880721722,-1,1,none,none,-1,-1,-1,651678,28390,11:37:45.690218,hand
4,158,hand2,5,cue,blue,-1,-1,-1,4,4,-1,0.2266070912919531,-1,1,none,none,-1,-1,-1,654244,28390,11:37:45.690218,hand
4,159,hand2,5,gabor,90,0.018569302941607035,3,3,-1,4,0.3733599620309178,-1,1,-1,incongruent,CR,3,4,1.2402749703560403,656894,28390,11:37:45.690218,hand
4,160,hand2,5,cue,blue,-1,-1,-1,4,4,-1,0.24617426872191572,-1,1,none,none,-1,-1,-1,661946,28390,11:37:45.690218,hand
4,161,hand2,5,cue,blue,-1,-1,-1,4,4,-1,0.15109276985549513,-1,1,none,none,-1,-1,-1,664528,28390,11:37:45.690218,hand
4,162,hand2,5,cue,yellow,-1,-1,-1,3,3,-1,0.2928648556489861,-1,1,none,none,-1,-1,-1,667011,28390,11:37:45.690218,hand
4,163,hand2,5,gabor,0,0.018569302941607035,4,4,-1,3,0.3836421668311232,-1,1,-1,incongruent,hit,q,3,2.5616475335309588,669727,28390,11:37:45.690218,hand
4,164,hand2,5,cue,yellow,-1,-1,-1,3,3,-1,0.13731545252903743,-1,1,none,none,-1,-1,-1,676011,28390,11:37:45.690218,hand
4,165,hand2,5,cue,yellow,-1,-1,-1,3,3,-1,0.15923920055502094,-1,1,none,none,-1,-1,-1,678577,28390,11:37:45.690218,hand
4,166,hand2,5,gabor,0,0.018569302941607035,4,4,-1,3,0.40785413453977526,-1,1,-1,incongruent,hit,4,3,1.449888027376801,681262,28390,11:37:45.690218,hand
4,167,hand2,5,cue,yellow,-1,-1,-1,3,3,-1,0.15373234396065527,-1,1,none,none,-1,-1,-1,686561,28390,11:37:45.690218,hand
4,168,hand2,5,cue,yellow,-1,-1,-1,3,3,-1,0.2216581778411637,-1,1,none,none,-1,-1,-1,689143,28390,11:37:45.690218,hand
4,169,hand2,5,gabor,90,0.018569302941607035,3,3,-1,3,0.3612591620940293,-1,1,-1,congruent,CR,4,3,4.812355234297684,691894,28390,11:37:45.690218,hand
4,170,hand2,5,gabor,0,0.018569302941607035,4,4,-1,4,0.4097468404979736,-1,1,-1,congruent,hit,4,2,1.501738340409247,703326,28390,11:37:45.690218,hand
4,171,hand2,5,gabor,0,0.018569302941607035,4,4,-1,3,0.3514381339737156,-1,1,-1,incongruent,hit,3,3,2.0853526292830793,708576,28390,11:37:45.690218,hand
4,172,hand2,5,cue,yellow,-1,-1,-1,3,3,-1,0.18823189238355553,-1,1,none,none,-1,-1,-1,714360,28390,11:37:45.690218,hand
4,173,hand2,5,cue,yellow,-1,-1,-1,3,3,-1,0.16506093215230067,-1,1,none,none,-1,-1,-1,716976,28390,11:37:45.690218,hand
4,174,hand2,5,gabor,0,0.018569302941607035,4,4,-1,4,0.5907523515788853,-1,1,-1,congruent,hit,q,3,2.3737965631007683,719677,28390,11:37:45.690218,hand
4,175,hand2,5,cue,blue,-1,-1,-1,4,4,-1,0.21350099531173328,-1,1,none,none,-1,-1,-1,725975,28390,11:37:45.690218,hand
4,176,hand2,5,gabor,0,0.018569302941607035,4,4,-1,4,0.37226289144382463,-1,1,-1,congruent,hit,4,3,1.2222694961392335,728527,28390,11:37:45.690218,hand
4,177,hand2,5,cue,blue,-1,-1,-1,4,4,-1,0.1642030897683071,-1,1,none,none,-1,-1,-1,733459,28390,11:37:45.690218,hand
4,178,hand2,5,gabor,90,0.018569302941607035,3,3,-1,3,0.3718781295501685,-1,1,-1,congruent,CR,3,4,1.1618872225262749,735959,28390,11:37:45.690218,hand
4,179,hand2,5,gabor,90,0.018569302941607035,3,3,-1,4,0.3405830102665277,-1,1,-1,incongruent,CR,3,3,1.050474846862926,740725,28390,11:37:45.690218,hand
4,180,hand2,5,cue,blue,-1,-1,-1,4,4,-1,0.16635844755910512,-1,1,none,none,-1,-1,-1,745559,28390,11:37:45.690218,hand
4,181,hand2,6,cue,blue,-1,-1,-1,4,4,-1,0.17309792458945594,-1,1,none,none,-1,-1,-1,751309,28390,11:37:45.690218,hand
4,182,hand2,6,gabor,90,0.018569302941607035,3,3,-1,4,0.3588158088759883,-1,1,-1,incongruent,CR,q,4,1.1287930917960693,753825,28390,11:37:45.690218,hand
4,183,hand2,6,cue,yellow,-1,-1,-1,3,3,-1,0.15661114626800554,-1,1,none,none,-1,-1,-1,758658,28390,11:37:45.690218,hand
4,184,hand2,6,gabor,90,0.018569302941607035,3,3,-1,3,0.43125817907002784,-1,1,-1,congruent,CR,4,4,2.0053701547649325,761342,28390,11:37:45.690218,hand
4,185,hand2,6,gabor,0,0.018569302941607035,4,4,-1,4,0.3341461204336156,-1,1,-1,congruent,hit,3,3,3.141140031825671,767226,28390,11:37:45.690218,hand
4,186,hand2,6,cue,yellow,-1,-1,-1,3,3,-1,0.26073762157284364,-1,1,none,none,-1,-1,-1,774125,28390,11:37:45.690218,hand
4,187,hand2,6,gabor,90,0.018569302941607035,3,3,-1,3,0.47251525223782664,-1,1,-1,congruent,CR,q,3,3.1704652623757283,776707,28390,11:37:45.690218,hand
4,188,hand2,6,cue,blue,-1,-1,-1,4,4,-1,0.18326454722500785,-1,1,none,none,-1,-1,-1,783591,28390,11:37:45.690218,hand
4,189,hand2,6,gabor,0,0.018569302941607035,4,4,-1,4,0.545863848049521,-1,1,-1,congruent,hit,q,2,2.1959628416780106,786207,28390,11:37:45.690218,hand
4,190,hand2,6,cue,blue,-1,-1,-1,4,4,-1,0.6734830704763226,-1,1,none,none,-1,-1,-1,792173,28390,11:37:45.690218,hand
4,191,hand2,6,cue,yellow,-1,-1,-1,3,3,-1,0.17852913438582618,-1,1,none,none,-1,-1,-1,795273,28390,11:37:45.690218,hand
4,192,hand2,6,cue,yellow,-1,-1,-1,3,3,-1,0.13846436229323444,-1,1,none,none,-1,-1,-1,797890,28390,11:37:45.690218,hand
4,193,hand2,6,cue,yellow,-1,-1,-1,3,3,-1,0.3412185201805187,-1,1,none,none,-1,-1,-1,800457,28390,11:37:45.690218,hand
4,194,hand2,6,cue,yellow,-1,-1,-1,3,3,-1,0.15098486756778584,-1,1,none,none,-1,-1,-1,803124,28390,11:37:45.690218,hand
4,195,hand2,6,gabor,0,0.018569302941607035,4,4,-1,3,0.745924288689821,-1,1,-1,incongruent,hit,c,2,2.168825608400766,805706,28390,11:37:45.690218,hand
4,196,hand2,6,cue,blue,-1,-1,-1,4,4,-1,0.16553631660735846,-1,1,none,none,-1,-1,-1,811873,28390,11:37:45.690218,hand
4,197,hand2,6,gabor,90,0.018569302941607035,3,3,-1,3,0.3493906784715364,-1,1,-1,congruent,CR,q,4,1.765334796606112,814573,28390,11:37:45.690218,hand
4,198,hand2,6,gabor,90,0.018569302941607035,3,3,-1,4,0.48215887517380907,-1,1,-1,incongruent,CR,q,3,2.826031177232835,819939,28390,11:37:45.690218,hand
4,199,hand2,6,gabor,90,0.018569302941607035,3,3,-1,4,0.48774253055034933,-1,1,-1,incongruent,CR,c,3,2.3686399089474435,826589,28390,11:37:45.690218,hand
4,200,hand2,6,cue,blue,-1,-1,-1,4,4,-1,0.2633733557386222,-1,1,none,none,-1,-1,-1,832788,28390,11:37:45.690218,hand
4,201,hand2,6,cue,yellow,-1,-1,-1,3,3,-1,0.17722432309619762,-1,1,none,none,-1,-1,-1,835390,28390,11:37:45.690218,hand
4,202,hand2,6,cue,blue,-1,-1,-1,4,4,-1,0.1891507897989868,-1,1,none,none,-1,-1,-1,838090,28390,11:37:45.690218,hand
4,203,hand2,6,cue,blue,-1,-1,-1,4,4,-1,0.18287671338111977,-1,1,none,none,-1,-1,-1,840806,28390,11:37:45.690218,hand
4,204,hand2,6,gabor,0,0.018569302941607035,4,4,-1,3,0.32485807585180737,-1,1,-1,incongruent,hit,4,3,0.8396860005041162,843523,28390,11:37:45.690218,hand
4,205,hand2,6,cue,blue,-1,-1,-1,4,4,-1,0.21854283528773522,-1,1,none,none,-1,-1,-1,847921,28390,11:37:45.690218,hand
4,206,hand2,6,cue,blue,-1,-1,-1,4,4,-1,0.2013614119914564,-1,1,none,none,-1,-1,-1,850471,28390,11:37:45.690218,hand
4,207,hand2,6,cue,yellow,-1,-1,-1,3,3,-1,0.13123106910006754,-1,1,none,none,-1,-1,-1,853005,28390,11:37:45.690218,hand
4,208,hand2,6,gabor,0,0.018569302941607035,4,4,-1,3,0.3760575192145552,-1,1,-1,incongruent,hit,q,3,2.4019920835817175,855472,28390,11:37:45.690218,hand
4,209,hand2,6,cue,yellow,-1,-1,-1,3,3,-1,0.17881904978366947,-1,1,none,none,-1,-1,-1,861706,28390,11:37:45.690218,hand
4,210,hand2,6,cue,yellow,-1,-1,-1,3,3,-1,0.19553699243715528,-1,1,none,none,-1,-1,-1,864321,28390,11:37:45.690218,hand
4,211,hand2,6,cue,blue,-1,-1,-1,4,4,-1,0.16555206035718584,-1,1,none,none,-1,-1,-1,866854,28390,11:37:45.690218,hand
4,212,hand2,6,cue,blue,-1,-1,-1,4,4,-1,0.17824997081697802,-1,1,none,none,-1,-1,-1,869455,28390,11:37:45.690218,hand
4,213,hand2,6,gabor,0,0.018569302941607035,3,4,-1,4,0.3822955002060553,-1,0,-1,incongruent,miss,4,1,1.0571551888324393,871955,28390,11:37:45.690218,hand
4,214,hand2,6,cue,yellow,-1,-1,-1,4,3,-1,0.25184317074581486,-1,0,none,none,-1,-1,-1,876839,28390,11:37:45.690218,hand
4,215,hand2,6,cue,blue,-1,-1,-1,4,4,-1,0.19867153468476317,-1,1,none,none,-1,-1,-1,879621,28390,11:37:45.690218,hand
4,216,hand2,6,cue,yellow,-1,-1,-1,3,3,-1,0.16942425489833113,-1,1,none,none,-1,-1,-1,882355,28390,11:37:45.690218,hand
4,217,hand2,7,cue,blue,-1,-1,-1,4,4,-1,0.130201197446695,-1,1,none,none,-1,-1,-1,906787,28390,11:37:45.690218,hand
4,218,hand2,7,cue,blue,-1,-1,-1,4,4,-1,0.2377682581427507,-1,1,none,none,-1,-1,-1,913104,28390,11:37:45.690218,hand
4,219,hand2,7,cue,blue,-1,-1,-1,4,4,-1,0.2056640636992597,-1,1,none,none,-1,-1,-1,915769,28390,11:37:45.690218,hand
4,220,hand2,7,cue,blue,-1,-1,-1,4,4,-1,0.22952083704512916,-1,1,none,none,-1,-1,-1,918303,28390,11:37:45.690218,hand
4,221,hand2,7,cue,yellow,-1,-1,-1,3,3,-1,0.15529481516023225,-1,1,none,none,-1,-1,-1,921071,28390,11:37:45.690218,hand
4,222,hand2,7,cue,blue,-1,-1,-1,4,4,-1,0.21924516014041728,-1,1,none,none,-1,-1,-1,923653,28390,11:37:45.690218,hand
4,223,hand2,7,cue,yellow,-1,-1,-1,3,3,-1,0.17308333282107924,-1,1,none,none,-1,-1,-1,926404,28390,11:37:45.690218,hand
4,224,hand2,7,cue,yellow,-1,-1,-1,3,3,-1,0.18595749648193305,-1,1,none,none,-1,-1,-1,929104,28390,11:37:45.690218,hand
4,225,hand2,7,gabor,90,0.018569302941607035,3,3,-1,3,0.29864741986784793,-1,1,-1,congruent,CR,4,4,2.9744970447827654,931719,28390,11:37:45.690218,hand
4,226,hand2,7,gabor,90,0.018569302941607035,3,3,-1,3,0.35929618525096885,-1,1,-1,congruent,CR,4,4,2.342415429182438,938219,28390,11:37:45.690218,hand
4,227,hand2,7,cue,yellow,-1,-1,-1,3,3,-1,0.5250698100917361,-1,1,none,none,-1,-1,-1,944152,28390,11:37:45.690218,hand
4,228,hand2,7,gabor,0,0.018569302941607035,4,4,-1,3,0.35475507332739653,-1,1,-1,incongruent,hit,4,3,1.481810592702459,947102,28390,11:37:45.690218,hand
4,229,hand2,7,cue,blue,-1,-1,-1,4,4,-1,0.5896153456260436,-1,1,none,none,-1,-1,-1,952185,28390,11:37:45.690218,hand
4,230,hand2,7,cue,blue,-1,-1,-1,4,4,-1,0.1423826361024112,-1,1,none,none,-1,-1,-1,955302,28390,11:37:45.690218,hand
4,231,hand2,7,gabor,0,0.018569302941607035,4,4,-1,4,0.4801993542760101,-1,1,-1,congruent,hit,q,4,2.525178864360896,957768,28390,11:37:45.690218,hand
4,232,hand2,7,cue,blue,-1,-1,-1,4,4,-1,0.21985609444345755,-1,1,none,none,-1,-1,-1,964018,28390,11:37:45.690218,hand
4,233,hand2,7,cue,yellow,-1,-1,-1,3,3,-1,0.19369881361217267,-1,1,none,none,-1,-1,-1,966769,28390,11:37:45.690218,hand
4,234,hand2,7,gabor,0,0.018569302941607035,4,4,-1,3,0.764484250105852,-1,1,-1,incongruent,hit,3,4,2.7064493312363993,969485,28390,11:37:45.690218,hand
4,235,hand2,7,gabor,0,0.018569302941607035,4,4,-1,4,0.4142964002867302,-1,1,-1,congruent,hit,3,2,1.7821790732541558,976301,28390,11:37:45.690218,hand
4,236,hand2,7,gabor,90,0.018569302941607035,4,3,-1,3,0.33978084699901956,-1,0,-1,incongruent,FA,q,1,1.3727532516604697,981734,28390,11:37:45.690218,hand
4,237,hand2,7,gabor,0,0.018569302941607035,4,4,-1,4,0.48056568446099845,-1,1,-1,congruent,hit,c,2,4.1695164134353035,986684,28390,11:37:45.690218,hand
4,238,hand2,7,gabor,90,0.018569302941607035,3,3,-1,4,0.6111623956303447,-1,1,-1,incongruent,CR,3,3,4.621951472386172,994584,28390,11:37:45.690218,hand
4,239,hand2,7,cue,blue,-1,-1,-1,4,4,-1,0.18570636446838762,-1,1,none,none,-1,-1,-1,1003251,28390,11:37:45.690218,hand
4,240,hand2,7,gabor,90,0.018569302941607035,3,3,-1,4,0.41446151766649564,-1,1,-1,incongruent,CR,q,3,4.154431980855406,1005766,28390,11:37:45.690218,hand
4,241,hand2,7,cue,blue,-1,-1,-1,4,4,-1,0.19204610384440457,-1,1,none,none,-1,-1,-1,1013666,28390,11:37:45.690218,hand
4,242,hand2,7,cue,yellow,-1,-1,-1,3,3,-1,0.16882522440573666,-1,1,none,none,-1,-1,-1,1016384,28390,11:37:45.690218,hand
4,243,hand2,7,cue,blue,-1,-1,-1,4,4,-1,0.2866829377680915,-1,1,none,none,-1,-1,-1,1018983,28390,11:37:45.690218,hand
4,244,hand2,7,gabor,90,0.018569302941607035,3,3,-1,4,0.33349025884217554,-1,1,-1,incongruent,CR,q,3,1.0994160220689082,1021599,28390,11:37:45.690218,hand
4,245,hand2,7,cue,blue,-1,-1,-1,4,4,-1,0.3182069174199569,-1,1,none,none,-1,-1,-1,1026484,28390,11:37:45.690218,hand
4,246,hand2,7,cue,yellow,-1,-1,-1,3,3,-1,0.28219596898543386,-1,1,none,none,-1,-1,-1,1029233,28390,11:37:45.690218,hand
4,247,hand2,7,cue,yellow,-1,-1,-1,3,3,-1,0.16899533370633435,-1,1,none,none,-1,-1,-1,1032050,28390,11:37:45.690218,hand
4,248,hand2,7,cue,yellow,-1,-1,-1,3,3,-1,0.1617981359395344,-1,1,none,none,-1,-1,-1,1034549,28390,11:37:45.690218,hand
4,249,hand2,7,cue,yellow,-1,-1,-1,3,3,-1,0.49678289906205464,-1,1,none,none,-1,-1,-1,1037149,28390,11:37:45.690218,hand
4,250,hand2,7,cue,yellow,-1,-1,-1,3,3,-1,0.1484962030681345,-1,1,none,none,-1,-1,-1,1040183,28390,11:37:45.690218,hand
4,251,hand2,7,cue,yellow,-1,-1,-1,3,3,-1,0.15447191622206446,-1,1,none,none,-1,-1,-1,1042665,28390,11:37:45.690218,hand
4,252,hand2,7,gabor,0,0.018569302941607035,4,4,-1,3,0.4821081879790654,-1,1,-1,incongruent,hit,4,2,1.4112736002662132,1045249,28390,11:37:45.690218,hand
4,253,hand2,8,gabor,90,0.018569302941607035,3,3,-1,4,0.33269500746428093,-1,1,-1,incongruent,CR,c,3,1.929723739424844,1053282,28390,11:37:45.690218,hand
4,254,hand2,8,cue,blue,-1,-1,-1,4,4,-1,0.1584973243307104,-1,1,none,none,-1,-1,-1,1058982,28390,11:37:45.690218,hand
4,255,hand2,8,cue,yellow,-1,-1,-1,3,3,-1,0.18925485214731452,-1,1,none,none,-1,-1,-1,1061465,28390,11:37:45.690218,hand
4,256,hand2,8,cue,blue,-1,-1,-1,4,4,-1,0.14419739129880327,-1,1,none,none,-1,-1,-1,1063982,28390,11:37:45.690218,hand
4,257,hand2,8,cue,blue,-1,-1,-1,4,4,-1,0.18409359006636805,-1,1,none,none,-1,-1,-1,1066666,28390,11:37:45.690218,hand
4,258,hand2,8,gabor,0,0.018569302941607035,4,4,-1,4,0.391732534420953,-1,1,-1,congruent,hit,c,4,1.2917796888723387,1069382,28390,11:37:45.690218,hand
4,259,hand2,8,gabor,90,0.018569302941607035,3,3,-1,3,0.5056147588829845,-1,1,-1,congruent,CR,c,3,1.499603334295898,1074298,28390,11:37:45.690218,hand
4,260,hand2,8,cue,yellow,-1,-1,-1,3,3,-1,0.7912770408511278,-1,1,none,none,-1,-1,-1,1079749,28390,11:37:45.690218,hand
4,261,hand2,8,cue,yellow,-1,-1,-1,3,3,-1,0.18618750883160828,-1,1,none,none,-1,-1,-1,1082864,28390,11:37:45.690218,hand
4,262,hand2,8,cue,blue,-1,-1,-1,4,4,-1,0.1477447269962795,-1,1,none,none,-1,-1,-1,1088214,28390,11:37:45.690218,hand
4,263,hand2,8,gabor,0,0.018569302941607035,4,4,-1,3,0.30659148578070017,-1,1,-1,incongruent,hit,4,3,1.7225475077257215,1090797,28390,11:37:45.690218,hand
4,264,hand2,8,gabor,0,0.018569302941607035,4,4,-1,3,0.38826698942648363,-1,1,-1,incongruent,hit,c,2,1.6973617314743024,1096064,28390,11:37:45.690218,hand
4,265,hand2,8,gabor,90,0.018569302941607035,3,3,-1,3,0.45008578423858125,-1,1,-1,congruent,CR,c,3,1.9470003932101463,1101397,28390,11:37:45.690218,hand
4,266,hand2,8,gabor,0,0.018569302941607035,4,4,-1,4,0.3716746127811348,-1,1,-1,congruent,hit,q,2,2.1766283645547446,1107113,28390,11:37:45.690218,hand
4,267,hand2,8,cue,blue,-1,-1,-1,4,4,-1,0.19235598692648637,-1,1,none,none,-1,-1,-1,1113098,28390,11:37:45.690218,hand
4,268,hand2,8,cue,yellow,-1,-1,-1,3,3,-1,0.4222228024791548,-1,1,none,none,-1,-1,-1,1115814,28390,11:37:45.690218,hand
4,269,hand2,8,cue,blue,-1,-1,-1,4,4,-1,0.16014427419031563,-1,1,none,none,-1,-1,-1,1118563,28390,11:37:45.690218,hand
4,270,hand2,8,cue,yellow,-1,-1,-1,3,3,-1,0.38589659504941665,-1,1,none,none,-1,-1,-1,1121046,28390,11:37:45.690218,hand
4,271,hand2,8,cue,blue,-1,-1,-1,4,4,-1,0.14974994316889934,-1,1,none,none,-1,-1,-1,1123964,28390,11:37:45.690218,hand
4,272,hand2,8,cue,yellow,-1,-1,-1,3,3,-1,0.1715846046090519,-1,1,none,none,-1,-1,-1,1126546,28390,11:37:45.690218,hand
4,273,hand2,8,gabor,90,0.018569302941607035,3,3,-1,4,0.5073200758160965,-1,1,-1,incongruent,CR,c,3,2.2743214059710226,1129146,28390,11:37:45.690218,hand
4,274,hand2,8,gabor,0,0.018569302941607035,4,4,-1,3,0.44610568741063616,-1,1,-1,incongruent,hit,4,3,2.9209821181721054,1135364,28390,11:37:45.690218,hand
4,275,hand2,8,cue,yellow,-1,-1,-1,3,3,-1,0.14175135012192186,-1,1,none,none,-1,-1,-1,1141962,28390,11:37:45.690218,hand
4,276,hand2,8,cue,blue,-1,-1,-1,4,4,-1,0.20252068959143799,-1,1,none,none,-1,-1,-1,1144630,28390,11:37:45.690218,hand
4,277,hand2,8,cue,blue,-1,-1,-1,4,4,-1,0.11437488864157785,-1,1,none,none,-1,-1,-1,1147261,28390,11:37:45.690218,hand
4,278,hand2,8,cue,yellow,-1,-1,-1,3,3,-1,0.1332297573771939,-1,1,none,none,-1,-1,-1,1149712,28390,11:37:45.690218,hand
4,279,hand2,8,cue,blue,-1,-1,-1,4,4,-1,0.12725826815676555,-1,1,none,none,-1,-1,-1,1152179,28390,11:37:45.690218,hand
4,280,hand2,8,cue,yellow,-1,-1,-1,3,3,-1,0.15785989444793813,-1,1,none,none,-1,-1,-1,1158411,28390,11:37:45.690218,hand
4,281,hand2,8,cue,yellow,-1,-1,-1,3,3,-1,0.16965618721678766,-1,1,none,none,-1,-1,-1,1161096,28390,11:37:45.690218,hand
4,282,hand2,8,cue,yellow,-1,-1,-1,3,3,-1,0.13745522631143103,-1,1,none,none,-1,-1,-1,1163594,28390,11:37:45.690218,hand
4,283,hand2,8,gabor,90,0.018569302941607035,3,3,-1,3,0.40012932914760313,-1,1,-1,congruent,CR,q,3,3.3672437071072636,1166162,28390,11:37:45.690218,hand
4,284,hand2,8,gabor,0,0.018569302941607035,4,4,-1,4,0.5018558425445008,-1,1,-1,congruent,hit,c,2,2.894864772706569,1173278,28390,11:37:45.690218,hand
4,285,hand2,8,cue,blue,-1,-1,-1,4,4,-1,0.14550181859522127,-1,1,none,none,-1,-1,-1,1180010,28390,11:37:45.690218,hand
4,286,hand2,8,cue,yellow,-1,-1,-1,3,3,-1,0.16537158322262258,-1,1,none,none,-1,-1,-1,1182594,28390,11:37:45.690218,hand
4,287,hand2,8,cue,blue,-1,-1,-1,4,4,-1,0.12724482836983952,-1,1,none,none,-1,-1,-1,1185194,28390,11:37:45.690218,hand
4,288,hand2,8,gabor,90,0.018569302941607035,3,3,-1,4,0.23783161713618028,-1,1,-1,incongruent,CR,q,3,1.7798294145477485,1191427,28390,11:37:45.690218,hand
4,289,hand2,9,cue,yellow,-1,-1,-1,3,3,-1,0.23862686851498438,-1,1,none,none,-1,-1,-1,1231476,28390,11:37:45.690218,hand
4,290,hand2,9,gabor,0,0.018569302941607035,4,4,-1,3,0.43538688153967087,-1,1,-1,incongruent,hit,4,2,1.576345284247509,1234175,28390,11:37:45.690218,hand
4,291,hand2,9,gabor,90,0.018569302941607035,3,3,-1,3,0.37216382101541967,-1,1,-1,congruent,CR,4,3,1.4501153517694547,1239426,28390,11:37:45.690218,hand
4,292,hand2,9,cue,yellow,-1,-1,-1,3,3,-1,0.24183206564157445,-1,1,none,none,-1,-1,-1,1244492,28390,11:37:45.690218,hand
4,293,hand2,9,cue,yellow,-1,-1,-1,3,3,-1,0.1576928570984819,-1,1,none,none,-1,-1,-1,1247159,28390,11:37:45.690218,hand
4,294,hand2,9,cue,yellow,-1,-1,-1,3,3,-1,0.17556393344966637,-1,1,none,none,-1,-1,-1,1249843,28390,11:37:45.690218,hand
4,295,hand2,9,cue,blue,-1,-1,-1,4,4,-1,0.16036430269741686,-1,1,none,none,-1,-1,-1,1252442,28390,11:37:45.690218,hand
4,296,hand2,9,gabor,90,0.018569302941607035,3,3,-1,4,0.3062240036124422,-1,1,-1,incongruent,CR,4,3,1.3392305837323875,1255127,28390,11:37:45.690218,hand
4,297,hand2,9,cue,blue,-1,-1,-1,4,4,-1,0.1438725324551342,-1,1,none,none,-1,-1,-1,1262841,28390,11:37:45.690218,hand
4,298,hand2,9,gabor,90,0.018569302941607035,3,3,-1,3,0.4536093123124374,-1,1,-1,congruent,CR,3,3,1.5955584192961396,1265308,28390,11:37:45.690218,hand
4,299,hand2,9,cue,yellow,-1,-1,-1,3,3,-1,0.22137440634560335,-1,1,none,none,-1,-1,-1,1270592,28390,11:37:45.690218,hand
4,300,hand2,9,cue,blue,-1,-1,-1,4,4,-1,0.158206640944627,-1,1,none,none,-1,-1,-1,1273242,28390,11:37:45.690218,hand
4,301,hand2,9,cue,yellow,-1,-1,-1,3,3,-1,0.1541105779569989,-1,1,none,none,-1,-1,-1,1275926,28390,11:37:45.690218,hand
4,302,hand2,9,gabor,90,0.018569302941607035,3,3,-1,4,0.4808479199818976,-1,1,-1,incongruent,CR,3,2,0.9536638394474721,1281341,28390,11:37:45.690218,hand
4,303,hand2,9,gabor,0,0.018569302941607035,4,4,-1,4,0.30848649570179987,-1,1,-1,congruent,hit,q,3,2.0373933264927473,1286208,28390,11:37:45.690218,hand
4,304,hand2,9,cue,blue,-1,-1,-1,4,4,-1,0.177266562425757,-1,1,none,none,-1,-1,-1,1291891,28390,11:37:45.690218,hand
4,305,hand2,9,gabor,90,0.018569302941607035,3,3,-1,4,0.3168494989649844,-1,1,-1,incongruent,CR,q,2,1.765964930604241,1294592,28390,11:37:45.690218,hand
4,306,hand2,9,cue,blue,-1,-1,-1,4,4,-1,0.4656505931934589,-1,1,none,none,-1,-1,-1,1300024,28390,11:37:45.690218,hand
4,307,hand2,9,gabor,0,0.018569302941607035,4,4,-1,4,0.3465832990295894,-1,1,-1,congruent,hit,c,3,1.6354469381867602,1303024,28390,11:37:45.690218,hand
4,308,hand2,9,cue,blue,-1,-1,-1,4,4,-1,0.1780956052662077,-1,1,none,none,-1,-1,-1,1308357,28390,11:37:45.690218,hand
4,309,hand2,9,cue,blue,-1,-1,-1,4,4,-1,0.1480572980344732,-1,1,none,none,-1,-1,-1,1310874,28390,11:37:45.690218,hand
4,310,hand2,9,cue,blue,-1,-1,-1,4,4,-1,0.18603621523288894,-1,1,none,none,-1,-1,-1,1313357,28390,11:37:45.690218,hand
4,311,hand2,9,cue,yellow,-1,-1,-1,3,3,-1,0.294754489656043,-1,1,none,none,-1,-1,-1,1316074,28390,11:37:45.690218,hand
4,312,hand2,9,cue,yellow,-1,-1,-1,3,3,-1,0.1356976862061856,-1,1,none,none,-1,-1,-1,1318907,28390,11:37:45.690218,hand
4,313,hand2,9,cue,yellow,-1,-1,-1,3,3,-1,0.3184142741292817,-1,1,none,none,-1,-1,-1,1321574,28390,11:37:45.690218,hand
4,314,hand2,9,gabor,90,0.018569302941607035,3,3,-1,3,0.33431661372651433,-1,1,-1,congruent,CR,c,3,1.6282555003290327,1324424,28390,11:37:45.690218,hand
4,315,hand2,9,cue,yellow,-1,-1,-1,3,3,-1,0.14975071115713945,-1,1,none,none,-1,-1,-1,1333289,28390,11:37:45.690218,hand
4,316,hand2,9,gabor,0,0.018569302941607035,3,4,-1,3,0.3195889114840611,-1,0,-1,congruent,miss,q,1,1.0955499714309553,1335772,28390,11:37:45.690218,hand
4,317,hand2,9,gabor,0,0.018569302941607035,4,4,-1,3,0.47830434435309144,-1,1,-1,incongruent,hit,c,2,2.611324057063939,1340523,28390,11:37:45.690218,hand
4,318,hand2,9,cue,blue,-1,-1,-1,4,4,-1,0.24605407862964057,-1,1,none,none,-1,-1,-1,1346939,28390,11:37:45.690218,hand
4,319,hand2,9,cue,blue,-1,-1,-1,4,4,-1,0.1878694021370393,-1,1,none,none,-1,-1,-1,1349724,28390,11:37:45.690218,hand
4,320,hand2,9,cue,yellow,-1,-1,-1,3,3,-1,0.18466420500953973,-1,1,none,none,-1,-1,-1,1352440,28390,11:37:45.690218,hand
4,321,hand2,9,cue,blue,-1,-1,-1,4,4,-1,0.20151808150512807,-1,1,none,none,-1,-1,-1,1355055,28390,11:37:45.690218,hand
4,322,hand2,9,cue,yellow,-1,-1,-1,3,3,-1,0.15433137445234024,-1,1,none,none,-1,-1,-1,1357790,28390,11:37:45.690218,hand
4,323,hand2,9,cue,blue,-1,-1,-1,4,4,-1,0.16228465621770738,-1,1,none,none,-1,-1,-1,1360372,28390,11:37:45.690218,hand
4,324,hand2,9,gabor,0,0.018569302941607035,4,4,-1,4,0.3458199191463791,-1,1,-1,congruent,hit,c,2,1.6406289359383663,1366738,28390,11:37:45.690218,hand
4,325,hand2,10,cue,blue,-1,-1,-1,4,4,-1,0.16971647425998526,-1,1,none,none,-1,-1,-1,1386121,28390,11:37:45.690218,hand
4,326,hand2,10,cue,blue,-1,-1,-1,4,4,-1,0.1566326499269053,-1,1,none,none,-1,-1,-1,1388670,28390,11:37:45.690218,hand
4,327,hand2,10,cue,yellow,-1,-1,-1,3,3,-1,0.18131309019827313,-1,1,none,none,-1,-1,-1,1391154,28390,11:37:45.690218,hand
4,328,hand2,10,cue,blue,-1,-1,-1,4,4,-1,0.1482519829442026,-1,1,none,none,-1,-1,-1,1393872,28390,11:37:45.690218,hand
4,329,hand2,10,cue,yellow,-1,-1,-1,3,3,-1,0.19815045495579398,-1,1,none,none,-1,-1,-1,1396454,28390,11:37:45.690218,hand
4,330,hand2,10,cue,blue,-1,-1,-1,4,4,-1,0.10326095304208138,-1,1,none,none,-1,-1,-1,1398987,28390,11:37:45.690218,hand
4,331,hand2,10,cue,yellow,-1,-1,-1,3,3,-1,0.10285775944248599,-1,1,none,none,-1,-1,-1,1401420,28390,11:37:45.690218,hand
4,332,hand2,10,gabor,0,0.018569302941607035,4,4,-1,3,0.4266598520553089,-1,1,-1,incongruent,hit,3,2,1.0826792637144536,1403854,28390,11:37:45.690218,hand
4,333,hand2,10,cue,blue,-1,-1,-1,4,4,-1,0.15246286010915355,-1,1,none,none,-1,-1,-1,1408603,28390,11:37:45.690218,hand
4,334,hand2,10,cue,yellow,-1,-1,-1,3,3,-1,0.18431784250697092,-1,1,none,none,-1,-1,-1,1411288,28390,11:37:45.690218,hand
4,335,hand2,10,cue,yellow,-1,-1,-1,3,3,-1,0.17636648071129457,-1,1,none,none,-1,-1,-1,1413804,28390,11:37:45.690218,hand
4,336,hand2,10,gabor,90,0.018569302941607035,3,3,-1,4,0.5270300989777752,-1,1,-1,incongruent,CR,q,2,2.5449326628286144,1416403,28390,11:37:45.690218,hand
4,337,hand2,10,gabor,0,0.018569302941607035,4,4,-1,4,0.3665985973466377,-1,1,-1,congruent,hit,4,2,1.3296011685697522,1422904,28390,11:37:45.690218,hand
4,338,hand2,10,cue,yellow,-1,-1,-1,3,3,-1,0.36336767262764624,-1,1,none,none,-1,-1,-1,1427920,28390,11:37:45.690218,hand
4,339,hand2,10,gabor,0,0.018569302941607035,4,4,-1,4,0.5260570584223387,-1,1,-1,congruent,hit,q,3,1.5520964531251593,1430821,28390,11:37:45.690218,hand
4,340,hand2,10,cue,blue,-1,-1,-1,4,4,-1,0.16591839054308366,-1,1,none,none,-1,-1,-1,1436354,28390,11:37:45.690218,hand
4,341,hand2,10,gabor,90,0.018569302941607035,3,3,-1,4,0.417516573177636,-1,1,-1,incongruent,CR,3,3,0.9957038761876902,1438852,28390,11:37:45.690218,hand
4,342,hand2,10,cue,yellow,-1,-1,-1,4,3,-1,0.4124505415857129,-1,0,none,none,-1,-1,-1,1443602,28390,11:37:45.690218,hand
4,343,hand2,10,gabor,90,0.018569302941607035,3,3,-1,3,0.34123541591179674,-1,1,-1,congruent,CR,3,2,1.2812951192836408,1446353,28390,11:37:45.690218,hand
4,344,hand2,10,cue,blue,-1,-1,-1,4,4,-1,0.17908822951176262,-1,1,none,none,-1,-1,-1,1451219,28390,11:37:45.690218,hand
4,345,hand2,10,cue,yellow,-1,-1,-1,3,3,-1,0.16885363995515945,-1,1,none,none,-1,-1,-1,1453937,28390,11:37:45.690218,hand
4,346,hand2,10,cue,yellow,-1,-1,-1,3,3,-1,0.5227005676970293,-1,1,none,none,-1,-1,-1,1456535,28390,11:37:45.690218,hand
4,347,hand2,10,gabor,90,0.018569302941607035,3,3,-1,4,0.505499176716512,-1,1,-1,incongruent,CR,3,3,1.2975299976033057,1459485,28390,11:37:45.690218,hand
4,348,hand2,10,cue,yellow,-1,-1,-1,3,3,-1,0.25024191616012104,-1,1,none,none,-1,-1,-1,1464536,28390,11:37:45.690218,hand
4,349,hand2,10,cue,blue,-1,-1,-1,4,4,-1,0.27421119972041197,-1,1,none,none,-1,-1,-1,1467119,28390,11:37:45.690218,hand
4,350,hand2,10,gabor,0,0.018569302941607035,4,4,-1,3,0.4928400496428367,-1,1,-1,incongruent,hit,q,2,1.3936924393137815,1472651,28390,11:37:45.690218,hand
4,351,hand2,10,gabor,90,0.018569302941607035,3,3,-1,3,0.44554812826027046,-1,1,-1,congruent,CR,3,3,0.7304604701312201,1477768,28390,11:37:45.690218,hand
4,352,hand2,10,cue,yellow,-1,-1,-1,3,3,-1,0.20313277587683842,-1,1,none,none,-1,-1,-1,1482202,28390,11:37:45.690218,hand
4,353,hand2,10,gabor,90,0.018569302941607035,3,3,-1,3,0.3650967971834689,-1,1,-1,congruent,CR,c,3,3.5147872212974107,1484735,28390,11:37:45.690218,hand
4,354,hand2,10,gabor,0,0.018569302941607035,3,4,-1,4,0.3764783765345783,-1,0,-1,incongruent,miss,4,1,2.17334713663422,1495633,28390,11:37:45.690218,hand
4,355,hand2,10,cue,blue,-1,-1,-1,4,4,-1,0.2132264396695973,-1,1,none,none,-1,-1,-1,1501417,28390,11:37:45.690218,hand
4,356,hand2,10,cue,blue,-1,-1,-1,4,4,-1,0.17106045292803174,-1,1,none,none,-1,-1,-1,1504169,28390,11:37:45.690218,hand
4,357,hand2,10,cue,yellow,-1,-1,-1,3,3,-1,0.17085578417663783,-1,1,none,none,-1,-1,-1,1506767,28390,11:37:45.690218,hand
4,358,hand2,10,cue,blue,-1,-1,-1,4,4,-1,0.1527028563004933,-1,1,none,none,-1,-1,-1,1509367,28390,11:37:45.690218,hand
4,359,hand2,10,cue,blue,-1,-1,-1,4,4,-1,0.28358103500158904,-1,1,none,none,-1,-1,-1,1512051,28390,11:37:45.690218,hand
4,360,hand2,10,gabor,0,0.018569302941607035,4,4,-1,3,0.3853686034290149,-1,1,-1,incongruent,hit,3,3,2.1953188838988353,1514766,28390,11:37:45.690218,hand
4,361,hand2,11,cue,yellow,-1,-1,-1,3,3,-1,0.28249126029913896,-1,1,none,none,-1,-1,-1,1530865,28390,11:37:45.690218,hand
4,362,hand2,11,cue,yellow,-1,-1,-1,3,3,-1,0.1623933264936568,-1,1,none,none,-1,-1,-1,1533633,28390,11:37:45.690218,hand
4,363,hand2,11,cue,blue,-1,-1,-1,4,4,-1,0.10122194540599594,-1,1,none,none,-1,-1,-1,1536133,28390,11:37:45.690218,hand
4,364,hand2,11,cue,yellow,-1,-1,-1,4,3,-1,0.13621070206409058,-1,0,none,none,-1,-1,-1,1538666,28390,11:37:45.690218,hand
4,365,hand2,11,cue,blue,-1,-1,-1,4,4,-1,0.24980761905317195,-1,1,none,none,-1,-1,-1,1544065,28390,11:37:45.690218,hand
4,366,hand2,11,gabor,0,0.018569302941607035,4,4,-1,3,0.5154803302966684,-1,1,-1,incongruent,hit,3,3,1.0873459416452533,1546850,28390,11:37:45.690218,hand
4,367,hand2,11,gabor,0,0.018569302941607035,4,4,-1,3,0.37029569066635304,-1,1,-1,incongruent,hit,3,2,0.8872824290529024,1551900,28390,11:37:45.690218,hand
4,368,hand2,11,gabor,90,0.018569302941607035,3,3,-1,4,0.3638852964122634,-1,1,-1,incongruent,CR,q,2,1.436721260360173,1560166,28390,11:37:45.690218,hand
4,369,hand2,11,gabor,0,0.018569302941607035,4,4,-1,3,0.3975143306524842,-1,1,-1,incongruent,hit,3,2,1.4974234008959684,1565416,28390,11:37:45.690218,hand
4,370,hand2,11,cue,blue,-1,-1,-1,4,4,-1,0.23725063435722404,-1,1,none,none,-1,-1,-1,1570665,28390,11:37:45.690218,hand
4,371,hand2,11,cue,yellow,-1,-1,-1,3,3,-1,0.15916240177375585,-1,1,none,none,-1,-1,-1,1573232,28390,11:37:45.690218,hand
4,372,hand2,11,cue,blue,-1,-1,-1,4,4,-1,0.1587423124419729,-1,1,none,none,-1,-1,-1,1578748,28390,11:37:45.690218,hand
4,373,hand2,11,cue,yellow,-1,-1,-1,3,3,-1,0.1435737851970771,-1,1,none,none,-1,-1,-1,1581331,28390,11:37:45.690218,hand
4,374,hand2,11,gabor,90,0.018569302941607035,3,3,-1,4,0.2975150218417184,-1,1,-1,incongruent,CR,3,3,1.1902824198377857,1583814,28390,11:37:45.690218,hand
4,375,hand2,11,cue,blue,-1,-1,-1,4,4,-1,0.14124601414368954,-1,1,none,none,-1,-1,-1,1588548,28390,11:37:45.690218,hand
4,376,hand2,11,gabor,0,0.018569302941607035,3,4,-1,4,0.33591441236694664,-1,0,-1,incongruent,miss,c,1,1.9649951155970484,1591014,28390,11:37:45.690218,hand
4,377,hand2,11,gabor,90,0.018569302941607035,3,3,-1,4,0.42769855556798575,-1,1,-1,incongruent,CR,c,3,1.1716456596395801,1596766,28390,11:37:45.690218,hand
4,378,hand2,11,gabor,90,0.018569302941607035,3,3,-1,3,0.39541503597229166,-1,1,-1,congruent,CR,c,3,1.107429590877473,1601613,28390,11:37:45.690218,hand
4,379,hand2,11,cue,yellow,-1,-1,-1,3,3,-1,0.36626068271016265,-1,1,none,none,-1,-1,-1,1606548,28390,11:37:45.690218,hand
4,380,hand2,11,cue,yellow,-1,-1,-1,3,3,-1,0.29720552275375667,-1,1,none,none,-1,-1,-1,1609448,28390,11:37:45.690218,hand
4,381,hand2,11,cue,blue,-1,-1,-1,4,4,-1,0.16284682329478528,-1,1,none,none,-1,-1,-1,1612081,28390,11:37:45.690218,hand
4,382,hand2,11,cue,blue,-1,-1,-1,4,4,-1,0.1676905224157963,-1,1,none,none,-1,-1,-1,1614781,28390,11:37:45.690218,hand
4,383,hand2,11,gabor,0,0.018569302941607035,4,4,-1,4,0.4014667799192466,-1,1,-1,congruent,hit,c,3,2.0283395181950254,1617380,28390,11:37:45.690218,hand
4,384,hand2,11,cue,yellow,-1,-1,-1,3,3,-1,0.17524445052004012,-1,1,none,none,-1,-1,-1,1623147,28390,11:37:45.690218,hand
4,385,hand2,11,cue,blue,-1,-1,-1,4,4,-1,0.15017502442151454,-1,1,none,none,-1,-1,-1,1625747,28390,11:37:45.690218,hand
4,386,hand2,11,cue,blue,-1,-1,-1,4,4,-1,0.16397768534625357,-1,1,none,none,-1,-1,-1,1628230,28390,11:37:45.690218,hand
4,387,hand2,11,cue,yellow,-1,-1,-1,3,3,-1,0.12477267560825567,-1,1,none,none,-1,-1,-1,1630931,28390,11:37:45.690218,hand
4,388,hand2,11,cue,blue,-1,-1,-1,4,4,-1,0.04263138735495886,-1,1,none,none,-1,-1,-1,1633580,28390,11:37:45.690218,hand
4,389,hand2,11,cue,blue,-1,-1,-1,4,4,-1,0.13960213623431628,-1,1,none,none,-1,-1,-1,1635946,28390,11:37:45.690218,hand
4,390,hand2,11,gabor,90,0.018569302941607035,3,3,-1,3,0.3402531595020264,-1,1,-1,congruent,CR,3,3,0.8612476422777036,1638614,28390,11:37:45.690218,hand
4,391,hand2,11,cue,yellow,-1,-1,-1,3,3,-1,0.14813563279130904,-1,1,none,none,-1,-1,-1,1643247,28390,11:37:45.690218,hand
4,392,hand2,11,gabor,90,0.018569302941607035,3,3,-1,3,0.43097363958622736,-1,1,-1,congruent,CR,q,3,0.9948325940167706,1645829,28390,11:37:45.690218,hand
4,393,hand2,11,cue,yellow,-1,-1,-1,3,3,-1,0.16747970976211946,-1,1,none,none,-1,-1,-1,1653412,28390,11:37:45.690218,hand
4,394,hand2,11,gabor,0,0.018569302941607035,3,4,-1,4,0.3972939181512629,-1,0,-1,incongruent,miss,q,2,1.0243590373738698,1656113,28390,11:37:45.690218,hand
4,395,hand2,11,cue,blue,-1,-1,-1,4,4,-1,0.1520804021802178,-1,1,none,none,-1,-1,-1,1660779,28390,11:37:45.690218,hand
4,396,hand2,11,cue,yellow,-1,-1,-1,3,3,-1,0.12974078875413397,-1,1,none,none,-1,-1,-1,1666095,28390,11:37:45.690218,hand
