subject_id,trial,effector_order,block,condition,stim1,gabor.contrast,pressed_gabor,expected_gabor,pressed_cue,expected_cue,rt_gabor,rt_cue,accuracy_gabor,accuracy_cue,congruency,SDT,pressed_conf,conf,rt_conf,trial_start_time_rel2bloc,bloc_start_time_rel2exp,exp_start_date,effector
8,1,hand2,1,gabor,0,0.013784560121283871,4,4,-1,3,0.5287906185358224,-1,1,-1,incongruent,hit,c,4,5.8577101826704165,0,25234,10:55:38.471724,hand
8,2,hand2,1,cue,yellow,-1,-1,-1,3,3,-1,0.32525740160417627,-1,1,none,none,-1,-1,-1,9782,25234,10:55:38.471724,hand
8,3,hand2,1,cue,blue,-1,-1,-1,4,4,-1,0.2692332651995457,-1,1,none,none,-1,-1,-1,12650,25234,10:55:38.471724,hand
8,4,hand2,1,cue,blue,-1,-1,-1,4,4,-1,0.20998280085314036,-1,1,none,none,-1,-1,-1,18281,25234,10:55:38.471724,hand
8,5,hand2,1,cue,yellow,-1,-1,-1,3,3,-1,0.25363576285872114,-1,1,none,none,-1,-1,-1,21033,25234,10:55:38.471724,hand
8,6,hand2,1,gabor,0,0.013784560121283871,4,4,-1,4,0.4464770165413938,-1,1,-1,congruent,hit,4,3,1.8753985390512753,23716,25234,10:55:38.471724,hand
8,7,hand2,1,cue,blue,-1,-1,-1,4,4,-1,0.3942171853996115,-1,1,none,none,-1,-1,-1,29265,25234,10:55:38.471724,hand
8,8,hand2,1,cue,blue,-1,-1,-1,4,4,-1,0.3150665521334304,-1,1,none,none,-1,-1,-1,32199,25234,10:55:38.471724,hand
8,9,hand2,1,gabor,0,0.013784560121283871,4,4,-1,3,0.452750730646585,-1,1,-1,incongruent,hit,c,4,4.763735029466261,35049,25234,10:55:38.471724,hand
8,10,hand2,1,cue,yellow,-1,-1,-1,3,3,-1,0.21939260402086802,-1,1,none,none,-1,-1,-1,43515,25234,10:55:38.471724,hand
8,11,hand2,1,gabor,90,0.013784560121283871,3,3,-1,3,0.39721042823566677,-1,1,-1,congruent,CR,c,3,2.6182000684284503,46164,25234,10:55:38.471724,hand
8,12,hand2,1,gabor,90,0.013784560121283871,3,3,-1,3,0.4227814387459148,-1,1,-1,congruent,CR,c,3,3.4867849960774038,52615,25234,10:55:38.471724,hand
8,13,hand2,1,gabor,90,0.013784560121283871,4,3,-1,4,0.5004990018042008,-1,0,-1,congruent,FA,4,2,2.844417803708893,59864,25234,10:55:38.471724,hand
8,14,hand2,1,cue,blue,-1,-1,-1,4,4,-1,0.42717472819822433,-1,1,none,none,-1,-1,-1,66648,25234,10:55:38.471724,hand
8,15,hand2,1,cue,blue,-1,-1,-1,4,4,-1,0.26485725553175143,-1,1,none,none,-1,-1,-1,69615,25234,10:55:38.471724,hand
8,16,hand2,1,gabor,90,0.013784560121283871,3,3,-1,3,0.3597021579380453,-1,1,-1,congruent,CR,q,3,4.082710269069139,72414,25234,10:55:38.471724,hand
8,17,hand2,1,cue,blue,-1,-1,-1,4,4,-1,0.30630109296544106,-1,1,none,none,-1,-1,-1,80197,25234,10:55:38.471724,hand
8,18,hand2,1,cue,blue,-1,-1,-1,4,4,-1,0.22323332433552423,-1,1,none,none,-1,-1,-1,83048,25234,10:55:38.471724,hand
8,19,hand2,1,gabor,90,0.013784560121283871,3,3,-1,4,0.39005160511896975,-1,1,-1,incongruent,CR,q,4,1.292834764163672,85713,25234,10:55:38.471724,hand
8,20,hand2,1,gabor,0,0.013784560121283871,3,4,-1,4,0.4877415282016955,-1,0,-1,incongruent,miss,4,1,3.0836111218841324,90730,25234,10:55:38.471724,hand
8,21,hand2,1,gabor,90,0.013784560121283871,4,3,-1,4,0.3792912907192658,-1,0,-1,congruent,FA,q,1,2.724155872881056,97747,25234,10:55:38.471724,hand
8,22,hand2,1,cue,yellow,-1,-1,-1,3,3,-1,0.26192506793904613,-1,1,none,none,-1,-1,-1,104196,25234,10:55:38.471724,hand
8,23,hand2,1,gabor,0,0.013784560121283871,3,4,-1,4,0.37751684875092906,-1,0,-1,incongruent,miss,3,2,3.265647901715056,106896,25234,10:55:38.471724,hand
8,24,hand2,1,cue,blue,-1,-1,-1,4,4,-1,0.2964039998478256,-1,1,none,none,-1,-1,-1,113879,25234,10:55:38.471724,hand
8,25,hand2,1,cue,yellow,-1,-1,-1,3,3,-1,0.3272944963109694,-1,1,none,none,-1,-1,-1,116613,25234,10:55:38.471724,hand
8,26,hand2,1,cue,yellow,-1,-1,-1,3,3,-1,0.24304363837018172,-1,1,none,none,-1,-1,-1,119480,25234,10:55:38.471724,hand
8,27,hand2,1,cue,blue,-1,-1,-1,4,4,-1,0.21796260577593785,-1,1,none,none,-1,-1,-1,122263,25234,10:55:38.471724,hand
8,28,hand2,1,gabor,0,0.013784560121283871,3,4,-1,3,0.36776759379699797,-1,0,-1,congruent,miss,3,3,4.155658227346976,124811,25234,10:55:38.471724,hand
8,29,hand2,1,cue,yellow,-1,-1,-1,3,3,-1,0.2652589145445745,-1,1,none,none,-1,-1,-1,132579,25234,10:55:38.471724,hand
8,30,hand2,1,cue,yellow,-1,-1,-1,3,3,-1,0.21322948054239532,-1,1,none,none,-1,-1,-1,135278,25234,10:55:38.471724,hand
8,31,hand2,1,cue,yellow,-1,-1,-1,3,3,-1,0.27978891014026885,-1,1,none,none,-1,-1,-1,140661,25234,10:55:38.471724,hand
8,32,hand2,1,cue,blue,-1,-1,-1,4,4,-1,0.1866355067331824,-1,1,none,none,-1,-1,-1,143378,25234,10:55:38.471724,hand
8,33,hand2,1,cue,yellow,-1,-1,-1,3,3,-1,0.23846833517745836,-1,1,none,none,-1,-1,-1,145895,25234,10:55:38.471724,hand
8,34,hand2,1,cue,yellow,-1,-1,-1,3,3,-1,0.20339152269025362,-1,1,none,none,-1,-1,-1,148578,25234,10:55:38.471724,hand
8,35,hand2,1,cue,yellow,-1,-1,-1,3,3,-1,0.17527423979481682,-1,1,none,none,-1,-1,-1,151211,25234,10:55:38.471724,hand
8,36,hand2,1,cue,blue,-1,-1,-1,4,4,-1,0.21520897596474242,-1,1,none,none,-1,-1,-1,153828,25234,10:55:38.471724,hand
8,37,hand2,2,gabor,0,0.013784560121283871,3,4,-1,4,0.4724220384086948,-1,0,-1,incongruent,miss,3,1,1.1663878221288542,182177,25234,10:55:38.471724,hand
8,38,hand2,2,gabor,90,0.013784560121283871,3,3,-1,3,0.36019328784004756,-1,1,-1,congruent,CR,3,4,3.4492314143426483,187361,25234,10:55:38.471724,hand
8,39,hand2,2,cue,yellow,-1,-1,-1,3,3,-1,0.24276716180338553,-1,1,none,none,-1,-1,-1,194509,25234,10:55:38.471724,hand
8,40,hand2,2,cue,blue,-1,-1,-1,4,4,-1,0.22667161764547927,-1,1,none,none,-1,-1,-1,197093,25234,10:55:38.471724,hand
8,41,hand2,2,cue,blue,-1,-1,-1,4,4,-1,0.22246955781793076,-1,1,none,none,-1,-1,-1,199643,25234,10:55:38.471724,hand
8,42,hand2,2,gabor,90,0.013784560121283871,3,3,-1,3,0.4472930064102911,-1,1,-1,congruent,CR,3,3,1.4613268801658705,202293,25234,10:55:38.471724,hand
8,43,hand2,2,cue,blue,-1,-1,-1,4,4,-1,0.256087188420679,-1,1,none,none,-1,-1,-1,207542,25234,10:55:38.471724,hand
8,44,hand2,2,cue,blue,-1,-1,-1,4,4,-1,0.22689011093279987,-1,1,none,none,-1,-1,-1,210326,25234,10:55:38.471724,hand
8,45,hand2,2,gabor,90,0.013784560121283871,3,3,-1,3,0.4026489527104786,-1,1,-1,congruent,CR,3,4,1.513613590973364,212875,25234,10:55:38.471724,hand
8,46,hand2,2,gabor,0,0.013784560121283871,4,4,-1,4,0.3783727741238181,-1,1,-1,congruent,hit,q,4,1.2693077602752965,218026,25234,10:55:38.471724,hand
8,47,hand2,2,gabor,0,0.013784560121283871,3,4,-1,3,0.4221040711563546,-1,0,-1,congruent,miss,q,1,5.217006073652556,223109,25234,10:55:38.471724,hand
8,48,hand2,2,cue,blue,-1,-1,-1,4,4,-1,0.3236281098334075,-1,1,none,none,-1,-1,-1,232192,25234,10:55:38.471724,hand
8,49,hand2,2,cue,blue,-1,-1,-1,4,4,-1,0.260434398446705,-1,1,none,none,-1,-1,-1,235043,25234,10:55:38.471724,hand
8,50,hand2,2,cue,blue,-1,-1,-1,4,4,-1,0.28025738432461367,-1,1,none,none,-1,-1,-1,237826,25234,10:55:38.471724,hand
8,51,hand2,2,cue,yellow,-1,-1,-1,3,3,-1,0.2142309401087914,-1,1,none,none,-1,-1,-1,240441,25234,10:55:38.471724,hand
8,52,hand2,2,cue,yellow,-1,-1,-1,3,3,-1,0.2708007337378149,-1,1,none,none,-1,-1,-1,245924,25234,10:55:38.471724,hand
8,53,hand2,2,gabor,90,0.013784560121283871,3,3,-1,4,0.44969374460197287,-1,1,-1,incongruent,CR,q,3,2.48463923071904,248624,25234,10:55:38.471724,hand
8,54,hand2,2,gabor,90,0.013784560121283871,3,3,-1,4,0.4593477687376435,-1,1,-1,incongruent,CR,q,4,2.229323488719274,254992,25234,10:55:38.471724,hand
8,55,hand2,2,gabor,90,0.013784560121283871,3,3,-1,4,0.39893456682875694,-1,1,-1,incongruent,CR,4,4,2.7357168173402897,261007,25234,10:55:38.471724,hand
8,56,hand2,2,cue,yellow,-1,-1,-1,3,3,-1,0.39862583466128854,-1,1,none,none,-1,-1,-1,267473,25234,10:55:38.471724,hand
8,57,hand2,2,cue,yellow,-1,-1,-1,3,3,-1,0.2184214800790869,-1,1,none,none,-1,-1,-1,270207,25234,10:55:38.471724,hand
8,58,hand2,2,cue,yellow,-1,-1,-1,3,3,-1,0.23426550735985074,-1,1,none,none,-1,-1,-1,272958,25234,10:55:38.471724,hand
8,59,hand2,2,cue,blue,-1,-1,-1,4,4,-1,0.3083055480783514,-1,1,none,none,-1,-1,-1,275623,25234,10:55:38.471724,hand
8,60,hand2,2,cue,blue,-1,-1,-1,4,4,-1,0.24580110813349165,-1,1,none,none,-1,-1,-1,281190,25234,10:55:38.471724,hand
8,61,hand2,2,cue,blue,-1,-1,-1,4,4,-1,0.23260933592246147,-1,1,none,none,-1,-1,-1,283773,25234,10:55:38.471724,hand
8,62,hand2,2,gabor,0,0.013784560121283871,4,4,-1,4,0.32747343808932783,-1,1,-1,congruent,hit,q,2,6.849466957018194,286440,25234,10:55:38.471724,hand
8,63,hand2,2,cue,yellow,-1,-1,-1,3,3,-1,0.23497321057311638,-1,1,none,none,-1,-1,-1,297057,25234,10:55:38.471724,hand
8,64,hand2,2,gabor,0,0.013784560121283871,3,4,-1,3,0.44175579515922436,-1,0,-1,congruent,miss,c,1,1.273704121688752,299722,25234,10:55:38.471724,hand
8,65,hand2,2,gabor,0,0.013784560121283871,4,4,-1,3,0.44246004241631454,-1,1,-1,incongruent,hit,3,4,4.861504823556061,304673,25234,10:55:38.471724,hand
8,66,hand2,2,cue,yellow,-1,-1,-1,3,3,-1,0.2247984889017971,-1,1,none,none,-1,-1,-1,316038,25234,10:55:38.471724,hand
8,67,hand2,2,cue,yellow,-1,-1,-1,3,3,-1,0.16868449761386728,-1,1,none,none,-1,-1,-1,318588,25234,10:55:38.471724,hand
8,68,hand2,2,cue,yellow,-1,-1,-1,3,3,-1,0.17756016341354552,-1,1,none,none,-1,-1,-1,321189,25234,10:55:38.471724,hand
8,69,hand2,2,cue,blue,-1,-1,-1,4,4,-1,0.19939912426070805,-1,1,none,none,-1,-1,-1,323689,25234,10:55:38.471724,hand
8,70,hand2,2,cue,yellow,-1,-1,-1,3,3,-1,0.25923902128761256,-1,1,none,none,-1,-1,-1,326423,25234,10:55:38.471724,hand
8,71,hand2,2,cue,blue,-1,-1,-1,4,4,-1,0.2170905526036222,-1,1,none,none,-1,-1,-1,329206,25234,10:55:38.471724,hand
8,72,hand2,2,cue,yellow,-1,-1,-1,3,3,-1,0.2129284282809749,-1,1,none,none,-1,-1,-1,331956,25234,10:55:38.471724,hand
8,73,hand2,3,cue,yellow,-1,-1,-1,3,3,-1,0.26849407437748596,-1,1,none,none,-1,-1,-1,356154,25234,10:55:38.471724,hand
8,74,hand2,3,cue,blue,-1,-1,-1,4,4,-1,0.199314645308732,-1,1,none,none,-1,-1,-1,358938,25234,10:55:38.471724,hand
8,75,hand2,3,cue,blue,-1,-1,-1,4,4,-1,0.2652808022730824,-1,1,none,none,-1,-1,-1,361672,25234,10:55:38.471724,hand
8,76,hand2,3,gabor,90,0.013784560121283871,3,3,-1,4,0.4290493929229342,-1,1,-1,incongruent,CR,c,1,1.6700736003658676,364271,25234,10:55:38.471724,hand
8,77,hand2,3,cue,yellow,-1,-1,-1,3,3,-1,0.22674265676323557,-1,1,none,none,-1,-1,-1,369821,25234,10:55:38.471724,hand
8,78,hand2,3,cue,blue,-1,-1,-1,4,4,-1,0.17747645245253807,-1,1,none,none,-1,-1,-1,372571,25234,10:55:38.471724,hand
8,79,hand2,3,cue,blue,-1,-1,-1,4,4,-1,0.1834548742244806,-1,1,none,none,-1,-1,-1,375071,25234,10:55:38.471724,hand
8,80,hand2,3,cue,yellow,-1,-1,-1,3,3,-1,0.1722541172930505,-1,1,none,none,-1,-1,-1,377687,25234,10:55:38.471724,hand
8,81,hand2,3,cue,blue,-1,-1,-1,4,4,-1,0.25323717580704397,-1,1,none,none,-1,-1,-1,380187,25234,10:55:38.471724,hand
8,82,hand2,3,gabor,90,0.013784560121283871,3,3,-1,4,0.3049728534570022,-1,1,-1,incongruent,CR,4,4,1.931982156509548,382770,25234,10:55:38.471724,hand
8,83,hand2,3,gabor,0,0.013784560121283871,3,4,-1,3,0.5036066752190891,-1,0,-1,congruent,miss,3,1,1.6596335379899756,388353,25234,10:55:38.471724,hand
8,84,hand2,3,gabor,0,0.013784560121283871,3,4,-1,3,0.36445870688021387,-1,0,-1,congruent,miss,3,1,1.7113446399444001,393854,25234,10:55:38.471724,hand
8,85,hand2,3,cue,yellow,-1,-1,-1,3,3,-1,0.3662450527008332,-1,1,none,none,-1,-1,-1,399370,25234,10:55:38.471724,hand
8,86,hand2,3,cue,blue,-1,-1,-1,4,4,-1,0.2630878055015273,-1,1,none,none,-1,-1,-1,402169,25234,10:55:38.471724,hand
8,87,hand2,3,cue,blue,-1,-1,-1,4,4,-1,0.2677103401083514,-1,1,none,none,-1,-1,-1,404869,25234,10:55:38.471724,hand
8,88,hand2,3,cue,blue,-1,-1,-1,4,4,-1,0.19241156301814044,-1,1,none,none,-1,-1,-1,407670,25234,10:55:38.471724,hand
8,89,hand2,3,cue,blue,-1,-1,-1,4,4,-1,0.22645235636809957,-1,1,none,none,-1,-1,-1,410186,25234,10:55:38.471724,hand
8,90,hand2,3,gabor,0,0.013784560121283871,3,4,-1,4,0.5621440604190866,-1,0,-1,incongruent,miss,q,1,1.475311218535353,412836,25234,10:55:38.471724,hand
8,91,hand2,3,cue,yellow,-1,-1,-1,3,3,-1,0.30899789148224954,-1,1,none,none,-1,-1,-1,418202,25234,10:55:38.471724,hand
8,92,hand2,3,cue,yellow,-1,-1,-1,3,3,-1,0.24478275277760986,-1,1,none,none,-1,-1,-1,420935,25234,10:55:38.471724,hand
8,93,hand2,3,cue,yellow,-1,-1,-1,3,3,-1,0.2307392791417442,-1,1,none,none,-1,-1,-1,423602,25234,10:55:38.471724,hand
8,94,hand2,3,cue,yellow,-1,-1,-1,3,3,-1,0.31646813473162183,-1,1,none,none,-1,-1,-1,426170,25234,10:55:38.471724,hand
8,95,hand2,3,cue,blue,-1,-1,-1,4,4,-1,0.26323756364217843,-1,1,none,none,-1,-1,-1,428919,25234,10:55:38.471724,hand
8,96,hand2,3,gabor,0,0.013784560121283871,3,4,-1,4,0.49730416147122014,-1,0,-1,incongruent,miss,q,2,4.892096187733841,431519,25234,10:55:38.471724,hand
8,97,hand2,3,cue,blue,-1,-1,-1,4,4,-1,0.28477393624689284,-1,1,none,none,-1,-1,-1,440135,25234,10:55:38.471724,hand
8,98,hand2,3,cue,yellow,-1,-1,-1,3,3,-1,0.15755593178528216,-1,1,none,none,-1,-1,-1,442851,25234,10:55:38.471724,hand
8,99,hand2,3,gabor,90,0.013784560121283871,3,3,-1,4,0.4584545958277886,-1,1,-1,incongruent,CR,4,3,1.2992935639713323,445435,25234,10:55:38.471724,hand
8,100,hand2,3,gabor,90,0.013784560121283871,3,3,-1,3,0.48615063595298125,-1,1,-1,congruent,CR,4,4,1.1841307058339225,450435,25234,10:55:38.471724,hand
8,101,hand2,3,gabor,90,0.013784560121283871,3,3,-1,3,0.40977129628026887,-1,1,-1,congruent,CR,q,4,2.8667709341716545,455451,25234,10:55:38.471724,hand
8,102,hand2,3,cue,yellow,-1,-1,-1,3,3,-1,0.37546631421082566,-1,1,none,none,-1,-1,-1,462068,25234,10:55:38.471724,hand
8,103,hand2,3,gabor,90,0.013784560121283871,3,3,-1,3,0.40120666661823634,-1,1,-1,congruent,CR,4,3,0.8772732037759852,464768,25234,10:55:38.471724,hand
8,104,hand2,3,cue,yellow,-1,-1,-1,3,3,-1,0.27201070271530625,-1,1,none,none,-1,-1,-1,469384,25234,10:55:38.471724,hand
8,105,hand2,3,cue,yellow,-1,-1,-1,3,3,-1,0.26100847131874616,-1,1,none,none,-1,-1,-1,472084,25234,10:55:38.471724,hand
8,106,hand2,3,gabor,0,0.013784560121283871,4,4,-1,3,0.4547194742026477,-1,1,-1,incongruent,hit,c,4,1.9526668276885175,474667,25234,10:55:38.471724,hand
8,107,hand2,3,cue,blue,-1,-1,-1,4,4,-1,0.2593465399540946,-1,1,none,none,-1,-1,-1,480317,25234,10:55:38.471724,hand
8,108,hand2,3,gabor,0,0.013784560121283871,4,4,-1,4,0.5632726224066573,-1,1,-1,congruent,hit,3,3,5.613195074569376,482900,25234,10:55:38.471724,hand
8,109,hand2,4,cue,blue,-1,-1,-1,4,4,-1,0.26542672046161897,-1,1,none,none,-1,-1,-1,497033,25234,10:55:38.471724,hand
8,110,hand2,4,cue,yellow,-1,-1,-1,3,3,-1,0.24928816883857507,-1,1,none,none,-1,-1,-1,499750,25234,10:55:38.471724,hand
8,111,hand2,4,cue,yellow,-1,-1,-1,3,3,-1,0.19320643314858899,-1,1,none,none,-1,-1,-1,502534,25234,10:55:38.471724,hand
8,112,hand2,4,cue,blue,-1,-1,-1,4,4,-1,0.20396674754829291,-1,1,none,none,-1,-1,-1,505049,25234,10:55:38.471724,hand
8,113,hand2,4,cue,blue,-1,-1,-1,4,4,-1,0.1698122916113789,-1,1,none,none,-1,-1,-1,507784,25234,10:55:38.471724,hand
8,114,hand2,4,cue,yellow,-1,-1,-1,3,3,-1,0.23768575289341243,-1,1,none,none,-1,-1,-1,510483,25234,10:55:38.471724,hand
8,115,hand2,4,cue,blue,-1,-1,-1,4,4,-1,0.2215783048832236,-1,1,none,none,-1,-1,-1,513250,25234,10:55:38.471724,hand
8,116,hand2,4,cue,blue,-1,-1,-1,4,4,-1,0.2473927683713555,-1,1,none,none,-1,-1,-1,515799,25234,10:55:38.471724,hand
8,117,hand2,4,gabor,0,0.013784560121283871,4,4,-1,4,0.41919108332331234,-1,1,-1,congruent,hit,3,3,1.2483197328620008,518383,25234,10:55:38.471724,hand
8,118,hand2,4,cue,blue,-1,-1,-1,4,4,-1,0.2340420221344175,-1,1,none,none,-1,-1,-1,523299,25234,10:55:38.471724,hand
8,119,hand2,4,gabor,90,0.013784560121283871,3,3,-1,4,0.2877637231258632,-1,1,-1,incongruent,CR,q,2,1.360751232912662,525865,25234,10:55:38.471724,hand
8,120,hand2,4,cue,yellow,-1,-1,-1,3,3,-1,0.3395197525223921,-1,1,none,none,-1,-1,-1,530950,25234,10:55:38.471724,hand
8,121,hand2,4,cue,yellow,-1,-1,-1,3,3,-1,0.3193450270118774,-1,1,none,none,-1,-1,-1,533615,25234,10:55:38.471724,hand
8,122,hand2,4,gabor,90,0.013784560121283871,3,3,-1,4,0.5970903145271222,-1,1,-1,incongruent,CR,3,3,2.1261159381447214,536265,25234,10:55:38.471724,hand
8,123,hand2,4,gabor,0,0.013784560121283871,4,4,-1,3,0.5328348563225518,-1,1,-1,incongruent,hit,q,3,1.873814174722611,542215,25234,10:55:38.471724,hand
8,124,hand2,4,gabor,90,0.013784560121283871,4,3,-1,3,0.4625476010087368,-1,0,-1,incongruent,FA,4,3,3.458478019537324,547865,25234,10:55:38.471724,hand
8,125,hand2,4,cue,yellow,-1,-1,-1,3,3,-1,0.25017865378140414,-1,1,none,none,-1,-1,-1,555131,25234,10:55:38.471724,hand
8,126,hand2,4,cue,blue,-1,-1,-1,3,4,-1,0.2867995110973425,-1,0,none,none,-1,-1,-1,561481,25234,10:55:38.471724,hand
8,127,hand2,4,cue,yellow,-1,-1,-1,3,3,-1,0.2736634181956106,-1,1,none,none,-1,-1,-1,564197,25234,10:55:38.471724,hand
8,128,hand2,4,cue,yellow,-1,-1,-1,3,3,-1,0.244562339514232,-1,1,none,none,-1,-1,-1,566999,25234,10:55:38.471724,hand
8,129,hand2,4,gabor,90,0.013784560121283871,3,3,-1,3,0.3272580167649721,-1,1,-1,congruent,CR,q,3,2.10924395562688,569765,25234,10:55:38.471724,hand
8,130,hand2,4,cue,blue,-1,-1,-1,4,4,-1,0.24590248287495342,-1,1,none,none,-1,-1,-1,579096,25234,10:55:38.471724,hand
8,131,hand2,4,cue,blue,-1,-1,-1,4,4,-1,0.2726765504476134,-1,1,none,none,-1,-1,-1,581680,25234,10:55:38.471724,hand
8,132,hand2,4,gabor,0,0.013784560121283871,4,4,-1,3,0.33241584072493424,-1,1,-1,incongruent,hit,c,4,3.8404361571447225,584482,25234,10:55:38.471724,hand
8,133,hand2,4,cue,blue,-1,-1,-1,4,4,-1,0.29303751364659547,-1,1,none,none,-1,-1,-1,591897,25234,10:55:38.471724,hand
8,134,hand2,4,cue,yellow,-1,-1,-1,3,3,-1,0.2630140784176547,-1,1,none,none,-1,-1,-1,594613,25234,10:55:38.471724,hand
8,135,hand2,4,gabor,90,0.013784560121283871,3,3,-1,3,0.3166877800040311,-1,1,-1,congruent,CR,3,4,1.0475220979660662,597313,25234,10:55:38.471724,hand
8,136,hand2,4,cue,blue,-1,-1,-1,4,4,-1,0.24948592638247646,-1,1,none,none,-1,-1,-1,602114,25234,10:55:38.471724,hand
8,137,hand2,4,cue,yellow,-1,-1,-1,3,3,-1,0.19943406782749662,-1,1,none,none,-1,-1,-1,604897,25234,10:55:38.471724,hand
8,138,hand2,4,gabor,0,0.013784560121283871,4,4,-1,4,0.4552305718571006,-1,1,-1,congruent,hit,4,3,0.8900656209452791,607530,25234,10:55:38.471724,hand
8,139,hand2,4,cue,yellow,-1,-1,-1,3,3,-1,0.5458430788121404,-1,1,none,none,-1,-1,-1,612313,25234,10:55:38.471724,hand
8,140,hand2,4,cue,blue,-1,-1,-1,4,4,-1,0.2277963396809355,-1,1,none,none,-1,-1,-1,615397,25234,10:55:38.471724,hand
8,141,hand2,4,gabor,90,0.013784560121283871,3,3,-1,4,0.37953051974909613,-1,1,-1,incongruent,CR,4,4,5.037446447065122,618147,25234,10:55:38.471724,hand
8,142,hand2,4,cue,yellow,-1,-1,-1,4,3,-1,0.41717971629714157,-1,0,none,none,-1,-1,-1,626997,25234,10:55:38.471724,hand
8,143,hand2,4,gabor,0,0.013784560121283871,4,4,-1,4,0.3638354826189243,-1,1,-1,congruent,hit,c,3,3.5417658174355893,629745,25234,10:55:38.471724,hand
8,144,hand2,4,gabor,0,0.013784560121283871,3,4,-1,3,0.46243777837298694,-1,0,-1,congruent,miss,3,1,1.251414734435457,636996,25234,10:55:38.471724,hand
8,145,hand2,5,cue,blue,-1,-1,-1,4,4,-1,0.31854017300520354,-1,1,none,none,-1,-1,-1,652913,25234,10:55:38.471724,hand
8,146,hand2,5,gabor,0,0.013784560121283871,4,4,-1,4,0.46635030579454906,-1,1,-1,congruent,hit,c,3,1.5923191737647358,655611,25234,10:55:38.471724,hand
8,147,hand2,5,gabor,90,0.013784560121283871,3,3,-1,4,0.5150858286942821,-1,1,-1,incongruent,CR,4,3,1.6800428845872375,661011,25234,10:55:38.471724,hand
8,148,hand2,5,cue,yellow,-1,-1,-1,3,3,-1,0.27975742253147473,-1,1,none,none,-1,-1,-1,666645,25234,10:55:38.471724,hand
8,149,hand2,5,cue,yellow,-1,-1,-1,3,3,-1,0.3436361814128759,-1,1,none,none,-1,-1,-1,669361,25234,10:55:38.471724,hand
8,150,hand2,5,cue,blue,-1,-1,-1,4,4,-1,0.26035529542878066,-1,1,none,none,-1,-1,-1,672229,25234,10:55:38.471724,hand
8,151,hand2,5,cue,blue,-1,-1,-1,4,4,-1,0.2602424008300659,-1,1,none,none,-1,-1,-1,675012,25234,10:55:38.471724,hand
8,152,hand2,5,gabor,0,0.013784560121283871,4,4,-1,3,0.35910005341338547,-1,1,-1,incongruent,hit,3,4,1.958133767811887,677694,25234,10:55:38.471724,hand
8,153,hand2,5,cue,blue,-1,-1,-1,3,4,-1,0.4148427213131072,-1,0,none,none,-1,-1,-1,683343,25234,10:55:38.471724,hand
8,154,hand2,5,cue,yellow,-1,-1,-1,3,3,-1,0.25761702542695275,-1,1,none,none,-1,-1,-1,686193,25234,10:55:38.471724,hand
8,155,hand2,5,cue,blue,-1,-1,-1,4,4,-1,0.2625145006195453,-1,1,none,none,-1,-1,-1,688877,25234,10:55:38.471724,hand
8,156,hand2,5,cue,yellow,-1,-1,-1,3,3,-1,0.23540520520873542,-1,1,none,none,-1,-1,-1,691477,25234,10:55:38.471724,hand
8,157,hand2,5,gabor,90,0.013784560121283871,3,3,-1,3,0.4392997616541834,-1,1,-1,congruent,CR,4,3,2.3991826277488144,694043,25234,10:55:38.471724,hand
8,158,hand2,5,gabor,0,0.013784560121283871,4,4,-1,3,0.49179728584476834,-1,1,-1,incongruent,hit,4,4,4.296721563904612,700327,25234,10:55:38.471724,hand
8,159,hand2,5,gabor,90,0.013784560121283871,3,3,-1,4,0.38028315040446614,-1,1,-1,incongruent,CR,4,4,1.2052254839209127,708460,25234,10:55:38.471724,hand
8,160,hand2,5,gabor,90,0.013784560121283871,4,3,-1,3,0.5140106420440134,-1,0,-1,incongruent,FA,q,3,2.64892928689369,713393,25234,10:55:38.471724,hand
8,161,hand2,5,cue,blue,-1,-1,-1,4,4,-1,0.30775643489596405,-1,1,none,none,-1,-1,-1,719909,25234,10:55:38.471724,hand
8,162,hand2,5,cue,yellow,-1,-1,-1,3,3,-1,0.20357968035477825,-1,1,none,none,-1,-1,-1,722542,25234,10:55:38.471724,hand
8,163,hand2,5,cue,blue,-1,-1,-1,4,4,-1,0.2414047467191267,-1,1,none,none,-1,-1,-1,725176,25234,10:55:38.471724,hand
8,164,hand2,5,cue,yellow,-1,-1,-1,3,3,-1,0.24624116666927875,-1,1,none,none,-1,-1,-1,727743,25234,10:55:38.471724,hand
8,165,hand2,5,gabor,0,0.013784560121283871,4,4,-1,4,0.37004199755847367,-1,1,-1,congruent,hit,c,3,3.2100430881055217,730326,25234,10:55:38.471724,hand
8,166,hand2,5,cue,yellow,-1,-1,-1,3,3,-1,0.43076277964973997,-1,1,none,none,-1,-1,-1,737142,25234,10:55:38.471724,hand
8,167,hand2,5,cue,blue,-1,-1,-1,4,4,-1,0.22168851151582203,-1,1,none,none,-1,-1,-1,740110,25234,10:55:38.471724,hand
8,168,hand2,5,cue,yellow,-1,-1,-1,3,3,-1,0.23040865924576792,-1,1,none,none,-1,-1,-1,742860,25234,10:55:38.471724,hand
8,169,hand2,5,cue,blue,-1,-1,-1,4,4,-1,0.27921982920634036,-1,1,none,none,-1,-1,-1,745627,25234,10:55:38.471724,hand
8,170,hand2,5,cue,yellow,-1,-1,-1,3,3,-1,0.24114900589393073,-1,1,none,none,-1,-1,-1,748242,25234,10:55:38.471724,hand
8,171,hand2,5,cue,yellow,-1,-1,-1,3,3,-1,0.22099885607804026,-1,1,none,none,-1,-1,-1,751009,25234,10:55:38.471724,hand
8,172,hand2,5,gabor,0,0.013784560121283871,4,4,-1,3,0.4778809146309868,-1,1,-1,incongruent,hit,3,3,1.2348115485801827,753558,25234,10:55:38.471724,hand
8,173,hand2,5,cue,blue,-1,-1,-1,4,4,-1,0.20057568565243855,-1,1,none,none,-1,-1,-1,758709,25234,10:55:38.471724,hand
8,174,hand2,5,cue,yellow,-1,-1,-1,3,3,-1,0.20035719236511795,-1,1,none,none,-1,-1,-1,761442,25234,10:55:38.471724,hand
8,175,hand2,5,cue,yellow,-1,-1,-1,3,3,-1,0.23233708330280933,-1,1,none,none,-1,-1,-1,764074,25234,10:55:38.471724,hand
8,176,hand2,5,gabor,90,0.013784560121283871,4,3,-1,4,0.5079058858409553,-1,0,-1,congruent,FA,3,2,1.4049463961855508,766741,25234,10:55:38.471724,hand
8,177,hand2,5,cue,blue,-1,-1,-1,4,4,-1,0.33475283570896863,-1,1,none,none,-1,-1,-1,772092,25234,10:55:38.471724,hand
8,178,hand2,5,cue,blue,-1,-1,-1,4,4,-1,0.23358391582223703,-1,1,none,none,-1,-1,-1,774958,25234,10:55:38.471724,hand
8,179,hand2,5,gabor,90,0.013784560121283871,3,3,-1,3,0.35342575586582825,-1,1,-1,congruent,CR,c,3,1.9404772830339425,777725,25234,10:55:38.471724,hand
8,180,hand2,5,gabor,0,0.013784560121283871,4,4,-1,4,0.32209904081901186,-1,1,-1,congruent,hit,4,3,2.689119379893782,783240,25234,10:55:38.471724,hand
8,181,hand2,6,cue,yellow,-1,-1,-1,3,3,-1,0.20434728682357672,-1,1,none,none,-1,-1,-1,814639,25234,10:55:38.471724,hand
8,182,hand2,6,cue,blue,-1,-1,-1,4,4,-1,0.19722494325469597,-1,1,none,none,-1,-1,-1,817373,25234,10:55:38.471724,hand
8,183,hand2,6,gabor,90,0.013784560121283871,3,3,-1,4,0.4339357322533033,-1,1,-1,incongruent,CR,3,3,2.01100914331073,820107,25234,10:55:38.471724,hand
8,184,hand2,6,gabor,90,0.013784560121283871,3,3,-1,4,0.39764357485728397,-1,1,-1,incongruent,CR,4,3,1.5566033932127539,825990,25234,10:55:38.471724,hand
8,185,hand2,6,cue,yellow,-1,-1,-1,3,3,-1,0.6072327805977693,-1,1,none,none,-1,-1,-1,831272,25234,10:55:38.471724,hand
8,186,hand2,6,cue,blue,-1,-1,-1,4,4,-1,0.22418371253479563,-1,1,none,none,-1,-1,-1,834206,25234,10:55:38.471724,hand
8,187,hand2,6,cue,yellow,-1,-1,-1,3,3,-1,0.18911726791975525,-1,1,none,none,-1,-1,-1,836856,25234,10:55:38.471724,hand
8,188,hand2,6,gabor,90,0.013784560121283871,3,3,-1,3,0.31287432335284393,-1,1,-1,congruent,CR,3,3,1.9077877689069282,839372,25234,10:55:38.471724,hand
8,189,hand2,6,gabor,0,0.013784560121283871,3,4,-1,3,0.5045428555959006,-1,0,-1,congruent,miss,c,1,1.8884904725018714,844921,25234,10:55:38.471724,hand
8,190,hand2,6,cue,yellow,-1,-1,-1,3,3,-1,0.17625035567562009,-1,1,none,none,-1,-1,-1,850655,25234,10:55:38.471724,hand
8,191,hand2,6,cue,yellow,-1,-1,-1,3,3,-1,0.16726947518236557,-1,1,none,none,-1,-1,-1,853155,25234,10:55:38.471724,hand
8,192,hand2,6,cue,blue,-1,-1,-1,4,4,-1,0.20707096500700573,-1,1,none,none,-1,-1,-1,855755,25234,10:55:38.471724,hand
8,193,hand2,6,gabor,90,0.013784560121283871,3,3,-1,4,0.32877172597090976,-1,1,-1,incongruent,CR,q,2,2.6256864394772492,858489,25234,10:55:38.471724,hand
8,194,hand2,6,cue,blue,-1,-1,-1,4,4,-1,0.23445366502346587,-1,1,none,none,-1,-1,-1,864672,25234,10:55:38.471724,hand
8,195,hand2,6,cue,yellow,-1,-1,-1,3,3,-1,0.16923207481431746,-1,1,none,none,-1,-1,-1,867439,25234,10:55:38.471724,hand
8,196,hand2,6,cue,yellow,-1,-1,-1,3,3,-1,0.23723993442854407,-1,1,none,none,-1,-1,-1,870038,25234,10:55:38.471724,hand
8,197,hand2,6,cue,blue,-1,-1,-1,4,4,-1,0.30189359568885266,-1,1,none,none,-1,-1,-1,876270,25234,10:55:38.471724,hand
8,198,hand2,6,gabor,0,0.013784560121283871,3,4,-1,3,0.3236181259571822,-1,0,-1,congruent,miss,q,3,3.833491603368202,878903,25234,10:55:38.471724,hand
8,199,hand2,6,cue,yellow,-1,-1,-1,3,3,-1,0.22718693924707623,-1,1,none,none,-1,-1,-1,886304,25234,10:55:38.471724,hand
8,200,hand2,6,cue,yellow,-1,-1,-1,3,3,-1,0.31012568547976116,-1,1,none,none,-1,-1,-1,888970,25234,10:55:38.471724,hand
8,201,hand2,6,gabor,0,0.013784560121283871,4,4,-1,4,0.47874528789907345,-1,1,-1,congruent,hit,q,3,2.750652695895951,894436,25234,10:55:38.471724,hand
8,202,hand2,6,cue,yellow,-1,-1,-1,3,3,-1,0.18343221850500413,-1,1,none,none,-1,-1,-1,900904,25234,10:55:38.471724,hand
8,203,hand2,6,cue,blue,-1,-1,-1,4,4,-1,0.2652343388508598,-1,1,none,none,-1,-1,-1,903420,25234,10:55:38.471724,hand
8,204,hand2,6,cue,blue,-1,-1,-1,4,4,-1,0.26098312763315334,-1,1,none,none,-1,-1,-1,909686,25234,10:55:38.471724,hand
8,205,hand2,6,gabor,90,0.013784560121283871,3,3,-1,3,0.40867921383869543,-1,1,-1,congruent,CR,c,4,2.3676197556333136,912269,25234,10:55:38.471724,hand
8,206,hand2,6,gabor,0,0.013784560121283871,4,4,-1,4,0.39939459311699466,-1,1,-1,congruent,hit,q,4,4.543357861669392,918504,25234,10:55:38.471724,hand
8,207,hand2,6,cue,blue,-1,-1,-1,4,4,-1,0.2520625343913707,-1,1,none,none,-1,-1,-1,926886,25234,10:55:38.471724,hand
8,208,hand2,6,cue,blue,-1,-1,-1,4,4,-1,0.1778304960562309,-1,1,none,none,-1,-1,-1,929468,25234,10:55:38.471724,hand
8,209,hand2,6,cue,blue,-1,-1,-1,4,4,-1,0.22550734410106088,-1,1,none,none,-1,-1,-1,932169,25234,10:55:38.471724,hand
8,210,hand2,6,gabor,0,0.013784560121283871,4,4,-1,4,0.46524094356846035,-1,1,-1,congruent,hit,q,3,1.7803620230251909,934719,25234,10:55:38.471724,hand
8,211,hand2,6,cue,blue,-1,-1,-1,4,4,-1,0.37325526966196776,-1,1,none,none,-1,-1,-1,940218,25234,10:55:38.471724,hand
8,212,hand2,6,cue,blue,-1,-1,-1,4,4,-1,0.20390338833476562,-1,1,none,none,-1,-1,-1,945951,25234,10:55:38.471724,hand
8,213,hand2,6,gabor,90,0.013784560121283871,4,3,-1,3,0.32459270585695776,-1,0,-1,incongruent,FA,4,1,1.9466442464645297,948685,25234,10:55:38.471724,hand
8,214,hand2,6,cue,yellow,-1,-1,-1,3,3,-1,0.2583324085444474,-1,1,none,none,-1,-1,-1,954185,25234,10:55:38.471724,hand
8,215,hand2,6,gabor,0,0.013784560121283871,4,4,-1,3,0.38414537445169117,-1,1,-1,incongruent,hit,4,4,2.3771336215086194,956969,25234,10:55:38.471724,hand
8,216,hand2,6,cue,yellow,-1,-1,-1,3,3,-1,0.49091640078222554,-1,1,none,none,-1,-1,-1,962968,25234,10:55:38.471724,hand
8,217,hand2,7,cue,blue,-1,-1,-1,4,4,-1,0.22293304006325343,-1,1,none,none,-1,-1,-1,979951,25234,10:55:38.471724,hand
8,218,hand2,7,cue,yellow,-1,-1,-1,3,3,-1,0.16481075370938925,-1,1,none,none,-1,-1,-1,982567,25234,10:55:38.471724,hand
8,219,hand2,7,cue,blue,-1,-1,-1,4,4,-1,0.20656716326266178,-1,1,none,none,-1,-1,-1,985067,25234,10:55:38.471724,hand
8,220,hand2,7,cue,blue,-1,-1,-1,4,4,-1,0.19540403786322713,-1,1,none,none,-1,-1,-1,987802,25234,10:55:38.471724,hand
8,221,hand2,7,cue,blue,-1,-1,-1,4,4,-1,0.1922660288255429,-1,1,none,none,-1,-1,-1,990434,25234,10:55:38.471724,hand
8,222,hand2,7,gabor,90,0.013784560121283871,3,3,-1,4,0.2929971941466647,-1,1,-1,incongruent,CR,3,3,3.3941284825004914,992950,25234,10:55:38.471724,hand
8,223,hand2,7,cue,yellow,-1,-1,-1,3,3,-1,0.19170577978093206,-1,1,none,none,-1,-1,-1,999867,25234,10:55:38.471724,hand
8,224,hand2,7,gabor,0,0.013784560121283871,4,4,-1,4,0.42356440502408077,-1,1,-1,congruent,hit,c,4,1.6775131239974144,1002384,25234,10:55:38.471724,hand
8,225,hand2,7,gabor,90,0.013784560121283871,3,3,-1,3,0.3693277664260677,-1,1,-1,congruent,CR,3,4,0.8902491706658111,1007717,25234,10:55:38.471724,hand
8,226,hand2,7,gabor,0,0.013784560121283871,4,4,-1,3,0.3991085166680932,-1,1,-1,incongruent,hit,q,4,3.4859475024759377,1012216,25234,10:55:38.471724,hand
8,227,hand2,7,gabor,0,0.013784560121283871,4,4,-1,3,0.3815603185466898,-1,1,-1,incongruent,hit,3,4,1.3105123686791558,1019449,25234,10:55:38.471724,hand
8,228,hand2,7,cue,yellow,-1,-1,-1,3,3,-1,0.22625651879934594,-1,1,none,none,-1,-1,-1,1024366,25234,10:55:38.471724,hand
8,229,hand2,7,cue,blue,-1,-1,-1,4,4,-1,0.17320412149820186,-1,1,none,none,-1,-1,-1,1026916,25234,10:55:38.471724,hand
8,230,hand2,7,cue,blue,-1,-1,-1,4,4,-1,0.24905969167502917,-1,1,none,none,-1,-1,-1,1029617,25234,10:55:38.471724,hand
8,231,hand2,7,gabor,0,0.013784560121283871,4,4,-1,4,0.4679650057469189,-1,1,-1,congruent,hit,c,4,1.8528100195107982,1032199,25234,10:55:38.471724,hand
8,232,hand2,7,cue,yellow,-1,-1,-1,3,3,-1,0.19150917422211933,-1,1,none,none,-1,-1,-1,1037866,25234,10:55:38.471724,hand
8,233,hand2,7,cue,blue,-1,-1,-1,4,4,-1,0.282383949920586,-1,1,none,none,-1,-1,-1,1040482,25234,10:55:38.471724,hand
8,234,hand2,7,cue,yellow,-1,-1,-1,3,3,-1,0.27133832706294925,-1,1,none,none,-1,-1,-1,1043300,25234,10:55:38.471724,hand
8,235,hand2,7,cue,yellow,-1,-1,-1,3,3,-1,0.2729630108906349,-1,1,none,none,-1,-1,-1,1046100,25234,10:55:38.471724,hand
8,236,hand2,7,cue,yellow,-1,-1,-1,3,3,-1,0.19484954874860705,-1,1,none,none,-1,-1,-1,1048899,25234,10:55:38.471724,hand
8,237,hand2,7,gabor,90,0.013784560121283871,4,3,-1,4,0.5776459479475307,-1,0,-1,congruent,FA,c,2,2.667687837988524,1051532,25234,10:55:38.471724,hand
8,238,hand2,7,cue,blue,-1,-1,-1,4,4,-1,0.24040597511975648,-1,1,none,none,-1,-1,-1,1058115,25234,10:55:38.471724,hand
8,239,hand2,7,gabor,90,0.013784560121283871,3,3,-1,4,0.37628076809778577,-1,1,-1,incongruent,CR,3,4,2.720297104790916,1060681,25234,10:55:38.471724,hand
8,240,hand2,7,gabor,90,0.013784560121283871,3,3,-1,3,0.399859611343345,-1,1,-1,congruent,CR,3,4,1.6517804514942327,1067131,25234,10:55:38.471724,hand
8,241,hand2,7,gabor,0,0.013784560121283871,4,4,-1,4,0.5884223901475707,-1,1,-1,congruent,hit,q,3,3.960506858346889,1072415,25234,10:55:38.471724,hand
8,242,hand2,7,cue,blue,-1,-1,-1,4,4,-1,0.4802524691858707,-1,1,none,none,-1,-1,-1,1080197,25234,10:55:38.471724,hand
8,243,hand2,7,cue,yellow,-1,-1,-1,3,3,-1,0.2430175266936203,-1,1,none,none,-1,-1,-1,1083215,25234,10:55:38.471724,hand
8,244,hand2,7,cue,yellow,-1,-1,-1,3,3,-1,0.23688781080090848,-1,1,none,none,-1,-1,-1,1085780,25234,10:55:38.471724,hand
8,245,hand2,7,cue,blue,-1,-1,-1,4,4,-1,0.22675648059157538,-1,1,none,none,-1,-1,-1,1088548,25234,10:55:38.471724,hand
8,246,hand2,7,cue,yellow,-1,-1,-1,3,3,-1,0.21453852028935216,-1,1,none,none,-1,-1,-1,1091298,25234,10:55:38.471724,hand
8,247,hand2,7,gabor,90,0.013784560121283871,3,3,-1,3,0.3962504401542901,-1,1,-1,congruent,CR,q,3,1.547337588256596,1093947,25234,10:55:38.471724,hand
8,248,hand2,7,cue,blue,-1,-1,-1,4,4,-1,0.2851387317177796,-1,1,none,none,-1,-1,-1,1099230,25234,10:55:38.471724,hand
8,249,hand2,7,cue,yellow,-1,-1,-1,3,3,-1,0.24395370707043185,-1,1,none,none,-1,-1,-1,1102048,25234,10:55:38.471724,hand
8,250,hand2,7,cue,blue,-1,-1,-1,4,4,-1,0.23182291368630104,-1,1,none,none,-1,-1,-1,1104713,25234,10:55:38.471724,hand
8,251,hand2,7,cue,yellow,-1,-1,-1,3,3,-1,0.18664126666226366,-1,1,none,none,-1,-1,-1,1107380,25234,10:55:38.471724,hand
8,252,hand2,7,gabor,0,0.013784560121283871,4,4,-1,3,0.4143930628961243,-1,1,-1,incongruent,hit,4,3,2.728400940173742,1110098,25234,10:55:38.471724,hand
8,253,hand2,8,cue,yellow,-1,-1,-1,3,3,-1,0.18680446463531553,-1,1,none,none,-1,-1,-1,1121345,25234,10:55:38.471724,hand
8,254,hand2,8,cue,yellow,-1,-1,-1,3,3,-1,0.17974816824607842,-1,1,none,none,-1,-1,-1,1123979,25234,10:55:38.471724,hand
8,255,hand2,8,cue,blue,-1,-1,-1,4,4,-1,0.1735481812256694,-1,1,none,none,-1,-1,-1,1126698,25234,10:55:38.471724,hand
8,256,hand2,8,gabor,90,0.013784560121283871,3,3,-1,3,0.2943611452119512,-1,1,-1,congruent,CR,4,4,1.1643219277784738,1129296,25234,10:55:38.471724,hand
8,257,hand2,8,cue,yellow,-1,-1,-1,3,3,-1,0.19811811616546038,-1,1,none,none,-1,-1,-1,1134197,25234,10:55:38.471724,hand
8,258,hand2,8,cue,blue,-1,-1,-1,4,4,-1,0.21094624489160196,-1,1,none,none,-1,-1,-1,1139561,25234,10:55:38.471724,hand
8,259,hand2,8,cue,blue,-1,-1,-1,4,4,-1,0.07655751346192119,-1,1,none,none,-1,-1,-1,1142195,25234,10:55:38.471724,hand
8,260,hand2,8,cue,blue,-1,-1,-1,4,4,-1,0.16750832021716633,-1,1,none,none,-1,-1,-1,1144695,25234,10:55:38.471724,hand
8,261,hand2,8,gabor,90,0.013784560121283871,3,3,-1,4,0.29524817419860483,-1,1,-1,incongruent,CR,4,4,1.115351399796964,1147195,25234,10:55:38.471724,hand
8,262,hand2,8,gabor,90,0.013784560121283871,3,3,-1,3,0.4020038407197717,-1,1,-1,congruent,CR,4,4,2.0829721538175363,1151861,25234,10:55:38.471724,hand
8,263,hand2,8,cue,blue,-1,-1,-1,4,4,-1,0.25079458213440375,-1,1,none,none,-1,-1,-1,1157594,25234,10:55:38.471724,hand
8,264,hand2,8,gabor,90,0.013784560121283871,3,3,-1,4,0.36150271158203395,-1,1,-1,incongruent,CR,4,3,0.9874614036789353,1160379,25234,10:55:38.471724,hand
8,265,hand2,8,cue,yellow,-1,-1,-1,3,3,-1,0.3422177030251987,-1,1,none,none,-1,-1,-1,1165062,25234,10:55:38.471724,hand
8,266,hand2,8,cue,yellow,-1,-1,-1,3,3,-1,0.2461758874806037,-1,1,none,none,-1,-1,-1,1167728,25234,10:55:38.471724,hand
8,267,hand2,8,cue,blue,-1,-1,-1,4,4,-1,0.1888953186762592,-1,1,none,none,-1,-1,-1,1170412,25234,10:55:38.471724,hand
8,268,hand2,8,cue,yellow,-1,-1,-1,3,3,-1,0.16780399654544453,-1,1,none,none,-1,-1,-1,1172928,25234,10:55:38.471724,hand
8,269,hand2,8,gabor,0,0.013784560121283871,4,4,-1,4,0.4286154783103484,-1,1,-1,congruent,hit,3,3,0.815644656956465,1175427,25234,10:55:38.471724,hand
8,270,hand2,8,gabor,0,0.013784560121283871,4,4,-1,3,0.5164321159791143,-1,1,-1,incongruent,hit,q,3,3.930915033758538,1180112,25234,10:55:38.471724,hand
8,271,hand2,8,cue,blue,-1,-1,-1,4,4,-1,0.15193692955108418,-1,1,none,none,-1,-1,-1,1190743,25234,10:55:38.471724,hand
8,272,hand2,8,cue,blue,-1,-1,-1,4,4,-1,0.2067468730310793,-1,1,none,none,-1,-1,-1,1193226,25234,10:55:38.471724,hand
8,273,hand2,8,cue,yellow,-1,-1,-1,3,3,-1,0.15161130159413005,-1,1,none,none,-1,-1,-1,1195861,25234,10:55:38.471724,hand
8,274,hand2,8,cue,yellow,-1,-1,-1,3,3,-1,0.11120463528368418,-1,1,none,none,-1,-1,-1,1198545,25234,10:55:38.471724,hand
8,275,hand2,8,gabor,90,0.013784560121283871,4,3,-1,4,0.48508274521282146,-1,0,-1,congruent,FA,q,3,2.48920954197456,1200994,25234,10:55:38.471724,hand
8,276,hand2,8,cue,yellow,-1,-1,-1,3,3,-1,0.24085217757965438,-1,1,none,none,-1,-1,-1,1207310,25234,10:55:38.471724,hand
8,277,hand2,8,cue,yellow,-1,-1,-1,3,3,-1,0.15576305804552248,-1,1,none,none,-1,-1,-1,1209976,25234,10:55:38.471724,hand
8,278,hand2,8,gabor,90,0.013784560121283871,3,3,-1,3,0.29053463272248337,-1,1,-1,congruent,CR,c,4,2.6025134791925666,1212560,25234,10:55:38.471724,hand
8,279,hand2,8,cue,yellow,-1,-1,-1,3,3,-1,0.1262891199939986,-1,1,none,none,-1,-1,-1,1218693,25234,10:55:38.471724,hand
8,280,hand2,8,gabor,0,0.013784560121283871,4,4,-1,3,0.38196389753647964,-1,1,-1,incongruent,hit,4,2,1.0601589970656278,1221344,25234,10:55:38.471724,hand
8,281,hand2,8,cue,blue,-1,-1,-1,4,4,-1,0.21580109661317692,-1,1,none,none,-1,-1,-1,1226227,25234,10:55:38.471724,hand
8,282,hand2,8,gabor,0,0.013784560121283871,4,4,-1,4,0.44057308984429255,-1,1,-1,congruent,hit,3,3,2.9375788870202086,1228775,25234,10:55:38.471724,hand
8,283,hand2,8,gabor,0,0.013784560121283871,4,4,-1,3,0.365143754375822,-1,1,-1,incongruent,hit,q,4,1.6872808107209494,1235594,25234,10:55:38.471724,hand
8,284,hand2,8,gabor,0,0.013784560121283871,4,4,-1,4,0.3868959322999217,-1,1,-1,congruent,hit,4,3,2.213882656432361,1240992,25234,10:55:38.471724,hand
8,285,hand2,8,cue,blue,-1,-1,-1,4,4,-1,0.31256443920028687,-1,1,none,none,-1,-1,-1,1246925,25234,10:55:38.471724,hand
8,286,hand2,8,cue,yellow,-1,-1,-1,3,3,-1,0.15647536920187122,-1,1,none,none,-1,-1,-1,1249777,25234,10:55:38.471724,hand
8,287,hand2,8,cue,blue,-1,-1,-1,4,4,-1,0.15738466991206224,-1,1,none,none,-1,-1,-1,1252460,25234,10:55:38.471724,hand
8,288,hand2,8,cue,blue,-1,-1,-1,4,4,-1,0.16018245917439344,-1,1,none,none,-1,-1,-1,1254942,25234,10:55:38.471724,hand
8,289,hand2,9,gabor,90,0.013784560121283871,3,3,-1,3,0.39324682944788947,-1,1,-1,congruent,CR,c,3,2.5113591549652483,1286007,25234,10:55:38.471724,hand
8,290,hand2,9,cue,yellow,-1,-1,-1,3,3,-1,0.24611828819615766,-1,1,none,none,-1,-1,-1,1292458,25234,10:55:38.471724,hand
8,291,hand2,9,cue,blue,-1,-1,-1,4,4,-1,0.18985223479467095,-1,1,none,none,-1,-1,-1,1295241,25234,10:55:38.471724,hand
8,292,hand2,9,cue,blue,-1,-1,-1,4,4,-1,0.2606770834336203,-1,1,none,none,-1,-1,-1,1297757,25234,10:55:38.471724,hand
8,293,hand2,9,cue,yellow,-1,-1,-1,3,3,-1,0.22060526096538524,-1,1,none,none,-1,-1,-1,1300341,25234,10:55:38.471724,hand
8,294,hand2,9,gabor,90,0.013784560121283871,3,3,-1,3,0.3903676331956376,-1,1,-1,congruent,CR,q,4,1.7562832179874022,1303092,25234,10:55:38.471724,hand
8,295,hand2,9,cue,yellow,-1,-1,-1,3,3,-1,0.14912378047938546,-1,1,none,none,-1,-1,-1,1308674,25234,10:55:38.471724,hand
8,296,hand2,9,cue,blue,-1,-1,-1,4,4,-1,0.19602534214936895,-1,1,none,none,-1,-1,-1,1311256,25234,10:55:38.471724,hand
8,297,hand2,9,cue,blue,-1,-1,-1,4,4,-1,0.1328082070531309,-1,1,none,none,-1,-1,-1,1313890,25234,10:55:38.471724,hand
8,298,hand2,9,gabor,90,0.013784560121283871,3,3,-1,3,0.3296161314856363,-1,1,-1,congruent,CR,c,3,1.3324607681670386,1316557,25234,10:55:38.471724,hand
8,299,hand2,9,cue,yellow,-1,-1,-1,3,3,-1,0.16733321839001292,-1,1,none,none,-1,-1,-1,1321456,25234,10:55:38.471724,hand
8,300,hand2,9,cue,yellow,-1,-1,-1,3,3,-1,0.20224491292719904,-1,1,none,none,-1,-1,-1,1323956,25234,10:55:38.471724,hand
8,301,hand2,9,gabor,0,0.013784560121283871,3,4,-1,3,0.4250927060493268,-1,0,-1,congruent,miss,q,1,2.5080844436233747,1326489,25234,10:55:38.471724,hand
8,302,hand2,9,cue,blue,-1,-1,-1,4,4,-1,0.1977698324890298,-1,1,none,none,-1,-1,-1,1332656,25234,10:55:38.471724,hand
8,303,hand2,9,cue,yellow,-1,-1,-1,3,3,-1,0.1745139292352178,-1,1,none,none,-1,-1,-1,1335391,25234,10:55:38.471724,hand
8,304,hand2,9,cue,yellow,-1,-1,-1,3,3,-1,0.1714427353672363,-1,1,none,none,-1,-1,-1,1337889,25234,10:55:38.471724,hand
8,305,hand2,9,gabor,90,0.013784560121283871,3,3,-1,4,0.4462546833019587,-1,1,-1,incongruent,CR,q,3,1.163292052565339,1340489,25234,10:55:38.471724,hand
8,306,hand2,9,cue,blue,-1,-1,-1,4,4,-1,0.19406927043655742,-1,1,none,none,-1,-1,-1,1348371,25234,10:55:38.471724,hand
8,307,hand2,9,gabor,90,0.013784560121283871,3,3,-1,4,0.3386619071734458,-1,1,-1,incongruent,CR,q,4,2.667531167933703,1350988,25234,10:55:38.471724,hand
8,308,hand2,9,cue,yellow,-1,-1,-1,3,3,-1,0.19821488296383905,-1,1,none,none,-1,-1,-1,1357339,25234,10:55:38.471724,hand
8,309,hand2,9,cue,yellow,-1,-1,-1,3,3,-1,0.20917295490835386,-1,1,none,none,-1,-1,-1,1359871,25234,10:55:38.471724,hand
8,310,hand2,9,gabor,90,0.013784560121283871,3,3,-1,4,0.37191819826330175,-1,1,-1,incongruent,CR,3,4,1.7799876276731084,1362405,25234,10:55:38.471724,hand
8,311,hand2,9,cue,blue,-1,-1,-1,4,4,-1,0.24368951835094776,-1,1,none,none,-1,-1,-1,1367972,25234,10:55:38.471724,hand
8,312,hand2,9,cue,blue,-1,-1,-1,4,4,-1,0.25154874877080147,-1,1,none,none,-1,-1,-1,1370739,25234,10:55:38.471724,hand
8,313,hand2,9,cue,blue,-1,-1,-1,4,4,-1,0.19550426061869075,-1,1,none,none,-1,-1,-1,1373321,25234,10:55:38.471724,hand
8,314,hand2,9,gabor,0,0.013784560121283871,4,4,-1,3,0.6252605887648315,-1,1,-1,incongruent,hit,q,2,1.190208198374421,1375855,25234,10:55:38.471724,hand
8,315,hand2,9,gabor,0,0.013784560121283871,3,4,-1,4,0.3959424759777903,-1,0,-1,incongruent,miss,c,1,1.956884631320463,1381122,25234,10:55:38.471724,hand
8,316,hand2,9,cue,yellow,-1,-1,-1,3,3,-1,0.3946507160171677,-1,1,none,none,-1,-1,-1,1386820,25234,10:55:38.471724,hand
8,317,hand2,9,cue,yellow,-1,-1,-1,3,3,-1,0.17748528434276523,-1,1,none,none,-1,-1,-1,1389739,25234,10:55:38.471724,hand
8,318,hand2,9,gabor,0,0.013784560121283871,4,4,-1,4,0.3741634183870701,-1,1,-1,congruent,hit,4,4,3.1452365967425067,1392337,25234,10:55:38.471724,hand
8,319,hand2,9,gabor,0,0.013784560121283871,4,4,-1,3,0.4349529356240964,-1,1,-1,incongruent,hit,3,4,3.9288452994569525,1399187,25234,10:55:38.471724,hand
8,320,hand2,9,cue,yellow,-1,-1,-1,3,3,-1,0.19347407782606751,-1,1,none,none,-1,-1,-1,1406988,25234,10:55:38.471724,hand
8,321,hand2,9,gabor,0,0.013784560121283871,4,4,-1,4,0.5473414282087106,-1,1,-1,congruent,hit,4,2,3.2063225582987798,1409704,25234,10:55:38.471724,hand
8,322,hand2,9,cue,blue,-1,-1,-1,4,4,-1,0.16971782878408703,-1,1,none,none,-1,-1,-1,1419719,25234,10:55:38.471724,hand
8,323,hand2,9,cue,blue,-1,-1,-1,4,4,-1,0.23459881522103387,-1,1,none,none,-1,-1,-1,1422320,25234,10:55:38.471724,hand
8,324,hand2,9,cue,blue,-1,-1,-1,4,4,-1,0.22851940270356863,-1,1,none,none,-1,-1,-1,1424887,25234,10:55:38.471724,hand
8,325,hand2,10,cue,blue,-1,-1,-1,4,4,-1,0.20532724265740399,-1,1,none,none,-1,-1,-1,1461851,25234,10:55:38.471724,hand
8,326,hand2,10,cue,blue,-1,-1,-1,4,4,-1,0.17323522511196643,-1,1,none,none,-1,-1,-1,1464602,25234,10:55:38.471724,hand
8,327,hand2,10,cue,yellow,-1,-1,-1,3,3,-1,0.1571277771017776,-1,1,none,none,-1,-1,-1,1467101,25234,10:55:38.471724,hand
8,328,hand2,10,gabor,90,0.013784560121283871,3,3,-1,3,0.5009290764646721,-1,1,-1,congruent,CR,q,3,2.0368036390464113,1469685,25234,10:55:38.471724,hand
8,329,hand2,10,cue,blue,-1,-1,-1,4,4,-1,0.1754527975781457,-1,1,none,none,-1,-1,-1,1475669,25234,10:55:38.471724,hand
8,330,hand2,10,gabor,90,0.013784560121283871,3,3,-1,3,0.4204382998386791,-1,1,-1,congruent,CR,4,4,1.298313224143385,1478168,25234,10:55:38.471724,hand
8,331,hand2,10,cue,blue,-1,-1,-1,4,4,-1,0.20324138055548246,-1,1,none,none,-1,-1,-1,1483335,25234,10:55:38.471724,hand
8,332,hand2,10,cue,blue,-1,-1,-1,4,4,-1,0.20471861021360382,-1,1,none,none,-1,-1,-1,1489633,25234,10:55:38.471724,hand
8,333,hand2,10,cue,yellow,-1,-1,-1,3,3,-1,0.2615487526109064,-1,1,none,none,-1,-1,-1,1492369,25234,10:55:38.471724,hand
8,334,hand2,10,gabor,0,0.013784560121283871,4,4,-1,4,0.365510085826827,-1,1,-1,congruent,hit,3,3,0.9104004724676997,1494968,25234,10:55:38.471724,hand
8,335,hand2,10,gabor,90,0.013784560121283871,3,3,-1,4,0.4070591379540929,-1,1,-1,incongruent,CR,c,2,4.8030845569028315,1499468,25234,10:55:38.471724,hand
8,336,hand2,10,cue,yellow,-1,-1,-1,3,3,-1,0.5157086689614516,-1,1,none,none,-1,-1,-1,1508016,25234,10:55:38.471724,hand
8,337,hand2,10,gabor,90,0.013784560121283871,3,3,-1,3,0.36651692132636526,-1,1,-1,congruent,CR,c,4,1.076459978672574,1511068,25234,10:55:38.471724,hand
8,338,hand2,10,gabor,0,0.013784560121283871,4,4,-1,4,0.4421824138626107,-1,1,-1,congruent,hit,c,4,1.339338890768886,1515850,25234,10:55:38.471724,hand
8,339,hand2,10,cue,blue,-1,-1,-1,4,4,-1,0.22793073801130959,-1,1,none,none,-1,-1,-1,1520866,25234,10:55:38.471724,hand
8,340,hand2,10,gabor,0,0.013784560121283871,4,4,-1,3,0.36875292556396744,-1,1,-1,incongruent,hit,4,4,1.9357641255528506,1523533,25234,10:55:38.471724,hand
8,341,hand2,10,cue,yellow,-1,-1,-1,3,3,-1,0.2725801676451738,-1,1,none,none,-1,-1,-1,1529183,25234,10:55:38.471724,hand
8,342,hand2,10,gabor,0,0.013784560121283871,4,4,-1,4,0.44027434155395895,-1,1,-1,congruent,hit,c,3,1.494301318753969,1531783,25234,10:55:38.471724,hand
8,343,hand2,10,cue,yellow,-1,-1,-1,3,3,-1,0.19704139353416394,-1,1,none,none,-1,-1,-1,1537049,25234,10:55:38.471724,hand
8,344,hand2,10,gabor,0,0.013784560121283871,4,4,-1,3,0.3478182734888833,-1,1,-1,incongruent,hit,4,4,2.092797823822366,1539582,25234,10:55:38.471724,hand
8,345,hand2,10,cue,yellow,-1,-1,-1,3,3,-1,0.17253481780790025,-1,1,none,none,-1,-1,-1,1545366,25234,10:55:38.471724,hand
8,346,hand2,10,cue,blue,-1,-1,-1,4,4,-1,0.1893956644635182,-1,1,none,none,-1,-1,-1,1548067,25234,10:55:38.471724,hand
8,347,hand2,10,cue,blue,-1,-1,-1,4,4,-1,0.20927394565478608,-1,1,none,none,-1,-1,-1,1550682,25234,10:55:38.471724,hand
8,348,hand2,10,cue,yellow,-1,-1,-1,3,3,-1,0.18918600306642475,-1,1,none,none,-1,-1,-1,1553416,25234,10:55:38.471724,hand
8,349,hand2,10,gabor,90,0.013784560121283871,3,3,-1,4,0.39906742917810334,-1,1,-1,incongruent,CR,q,4,2.4166732265848623,1558765,25234,10:55:38.471724,hand
8,350,hand2,10,cue,blue,-1,-1,-1,4,4,-1,0.2224584219566168,-1,1,none,none,-1,-1,-1,1564832,25234,10:55:38.471724,hand
8,351,hand2,10,cue,blue,-1,-1,-1,4,4,-1,0.16427815232236753,-1,1,none,none,-1,-1,-1,1567482,25234,10:55:38.471724,hand
8,352,hand2,10,cue,yellow,-1,-1,-1,3,3,-1,0.22724415453649272,-1,1,none,none,-1,-1,-1,1570182,25234,10:55:38.471724,hand
8,353,hand2,10,cue,yellow,-1,-1,-1,3,3,-1,0.24405047386972,-1,1,none,none,-1,-1,-1,1572748,25234,10:55:38.471724,hand
8,354,hand2,10,cue,blue,-1,-1,-1,4,4,-1,0.16191658164370892,-1,1,none,none,-1,-1,-1,1575431,25234,10:55:38.471724,hand
8,355,hand2,10,cue,blue,-1,-1,-1,4,4,-1,0.2587114118387035,-1,1,none,none,-1,-1,-1,1578031,25234,10:55:38.471724,hand
8,356,hand2,10,cue,yellow,-1,-1,-1,3,3,-1,0.19556070791804814,-1,1,none,none,-1,-1,-1,1580715,25234,10:55:38.471724,hand
8,357,hand2,10,gabor,90,0.013784560121283871,3,3,-1,4,0.32025394372703886,-1,1,-1,incongruent,CR,4,3,2.040360202887314,1583248,25234,10:55:38.471724,hand
8,358,hand2,10,cue,yellow,-1,-1,-1,3,3,-1,0.14914950816000783,-1,1,none,none,-1,-1,-1,1589048,25234,10:55:38.471724,hand
8,359,hand2,10,gabor,0,0.013784560121283871,3,4,-1,3,0.41385546957098995,-1,0,-1,congruent,miss,q,1,2.1748069175973797,1591630,25234,10:55:38.471724,hand
8,360,hand2,10,cue,yellow,-1,-1,-1,3,3,-1,0.16357083310413145,-1,1,none,none,-1,-1,-1,1597564,25234,10:55:38.471724,hand
8,361,hand2,11,cue,blue,-1,-1,-1,4,4,-1,0.19077574332823133,-1,1,none,none,-1,-1,-1,1628596,25234,10:55:38.471724,hand
8,362,hand2,11,cue,blue,-1,-1,-1,4,4,-1,0.18061945342833496,-1,1,none,none,-1,-1,-1,1631229,25234,10:55:38.471724,hand
8,363,hand2,11,cue,yellow,-1,-1,-1,3,3,-1,0.15744879711655813,-1,1,none,none,-1,-1,-1,1633746,25234,10:55:38.471724,hand
8,364,hand2,11,cue,yellow,-1,-1,-1,3,3,-1,0.14532798760774313,-1,1,none,none,-1,-1,-1,1636329,25234,10:55:38.471724,hand
8,365,hand2,11,cue,blue,-1,-1,-1,4,4,-1,0.25412804474672157,-1,1,none,none,-1,-1,-1,1639014,25234,10:55:38.471724,hand
8,366,hand2,11,cue,blue,-1,-1,-1,4,4,-1,0.25217888494717045,-1,1,none,none,-1,-1,-1,1641696,25234,10:55:38.471724,hand
8,367,hand2,11,cue,yellow,-1,-1,-1,3,3,-1,0.22394217953387852,-1,1,none,none,-1,-1,-1,1644279,25234,10:55:38.471724,hand
8,368,hand2,11,gabor,0,0.013784560121283871,4,4,-1,3,0.48158032469837053,-1,1,-1,incongruent,hit,4,3,3.386672063079459,1647029,25234,10:55:38.471724,hand
8,369,hand2,11,cue,blue,-1,-1,-1,4,4,-1,0.19333891150381532,-1,1,none,none,-1,-1,-1,1654346,25234,10:55:38.471724,hand
8,370,hand2,11,gabor,90,0.013784560121283871,3,3,-1,4,0.3792359954059066,-1,1,-1,incongruent,CR,q,3,4.489135046899719,1656862,25234,10:55:38.471724,hand
8,371,hand2,11,cue,yellow,-1,-1,-1,3,3,-1,0.16461875609275012,-1,1,none,none,-1,-1,-1,1668729,25234,10:55:38.471724,hand
8,372,hand2,11,cue,yellow,-1,-1,-1,3,3,-1,0.1693004259659574,-1,1,none,none,-1,-1,-1,1671328,25234,10:55:38.471724,hand
8,373,hand2,11,cue,blue,-1,-1,-1,4,4,-1,0.22830705333944934,-1,1,none,none,-1,-1,-1,1673828,25234,10:55:38.471724,hand
8,374,hand2,11,gabor,90,0.013784560121283871,3,3,-1,4,0.3411617161355025,-1,1,-1,incongruent,CR,q,2,4.465972454486291,1676495,25234,10:55:38.471724,hand
8,375,hand2,11,cue,yellow,-1,-1,-1,3,3,-1,0.17461376799565187,-1,1,none,none,-1,-1,-1,1684545,25234,10:55:38.471724,hand
8,376,hand2,11,cue,yellow,-1,-1,-1,3,3,-1,0.15957190675544553,-1,1,none,none,-1,-1,-1,1687246,25234,10:55:38.471724,hand
8,377,hand2,11,gabor,90,0.013784560121283871,3,3,-1,3,0.3132368148517344,-1,1,-1,congruent,CR,c,4,1.418355509698813,1689728,25234,10:55:38.471724,hand
8,378,hand2,11,gabor,90,0.013784560121283871,4,3,-1,3,0.2387713074158455,-1,0,-1,incongruent,FA,4,1,1.053720165010418,1698377,25234,10:55:38.471724,hand
8,379,hand2,11,cue,yellow,-1,-1,-1,3,3,-1,0.26861541687048884,-1,1,none,none,-1,-1,-1,1703112,25234,10:55:38.471724,hand
8,380,hand2,11,gabor,0,0.013784560121283871,4,4,-1,4,0.26531420985793375,-1,1,-1,congruent,hit,3,3,1.1142831250599556,1705711,25234,10:55:38.471724,hand
8,381,hand2,11,gabor,90,0.013784560121283871,3,3,-1,4,0.3241507273442039,-1,1,-1,incongruent,CR,q,4,1.73806379619964,1710544,25234,10:55:38.471724,hand
8,382,hand2,11,cue,blue,-1,-1,-1,4,4,-1,0.20794455416034907,-1,1,none,none,-1,-1,-1,1715843,25234,10:55:38.471724,hand
8,383,hand2,11,cue,yellow,-1,-1,-1,3,3,-1,0.17368219556192344,-1,1,none,none,-1,-1,-1,1718476,25234,10:55:38.471724,hand
8,384,hand2,11,cue,blue,-1,-1,-1,4,4,-1,0.20252791741313558,-1,1,none,none,-1,-1,-1,1720977,25234,10:55:38.471724,hand
8,385,hand2,11,cue,yellow,-1,-1,-1,3,3,-1,0.19936302870792133,-1,1,none,none,-1,-1,-1,1723510,25234,10:55:38.471724,hand
8,386,hand2,11,gabor,0,0.013784560121283871,4,4,-1,4,0.3652977364636172,-1,1,-1,congruent,hit,c,4,2.048222889265162,1726143,25234,10:55:38.471724,hand
8,387,hand2,11,gabor,90,0.013784560121283871,4,3,-1,3,0.5457225043091967,-1,0,-1,incongruent,FA,4,3,1.6627811469088556,1731909,25234,10:55:38.471724,hand
8,388,hand2,11,cue,blue,-1,-1,-1,4,4,-1,0.2775651937499788,-1,1,none,none,-1,-1,-1,1737343,25234,10:55:38.471724,hand
8,389,hand2,11,cue,blue,-1,-1,-1,4,4,-1,0.25142011036768963,-1,1,none,none,-1,-1,-1,1740144,25234,10:55:38.471724,hand
8,390,hand2,11,cue,yellow,-1,-1,-1,3,3,-1,0.2152692632162143,-1,1,none,none,-1,-1,-1,1742826,25234,10:55:38.471724,hand
8,391,hand2,11,cue,blue,-1,-1,-1,4,4,-1,0.2661751271698449,-1,1,none,none,-1,-1,-1,1745376,25234,10:55:38.471724,hand
8,392,hand2,11,gabor,0,0.013784560121283871,3,4,-1,3,0.39596205973521137,-1,0,-1,congruent,miss,q,1,1.7229124963187132,1748075,25234,10:55:38.471724,hand
8,393,hand2,11,cue,blue,-1,-1,-1,4,4,-1,0.24876055938875652,-1,1,none,none,-1,-1,-1,1753626,25234,10:55:38.471724,hand
8,394,hand2,11,cue,yellow,-1,-1,-1,3,3,-1,0.2844594441512527,-1,1,none,none,-1,-1,-1,1756410,25234,10:55:38.471724,hand
8,395,hand2,11,gabor,0,0.013784560121283871,4,4,-1,4,0.3743427441604581,-1,1,-1,congruent,hit,4,4,1.067284412596564,1759227,25234,10:55:38.471724,hand
8,396,hand2,11,gabor,0,0.013784560121283871,4,4,-1,3,0.3168836175727847,-1,1,-1,incongruent,hit,3,2,2.458771007899486,1767675,25234,10:55:38.471724,hand
