start,accuracy_gabor,delta,orientation,pressed_gabor,expected_gabor,rt_gabor,trial,participant,response condition,date,expName,
0.0005,1,0.0005,0,4,4,0.9791720985992924,0,8,8,2021_Apr_15_0945,Motor,
0.0425,1,0.0425,90,3,3,0.61189870666567,1,8,8,2021_Apr_15_0945,Motor,
0.0005,1,0.0005,0,4,4,0.8047115447014903,2,8,8,2021_Apr_15_0945,Motor,
0.0425,1,0.038000000000000006,90,3,3,0.5834039564564364,3,8,8,2021_Apr_15_0945,Motor,
0.0005,1,0.0005,0,4,4,0.9302284502836073,4,8,8,2021_Apr_15_0945,Motor,
0.0425,1,0.03350000000000001,0,4,4,0.9529479121987379,5,8,8,2021_Apr_15_0945,Motor,
0.0425,1,0.02900000000000001,0,4,4,0.5597110666273011,6,8,8,2021_Apr_15_0945,Motor,
0.0005,1,0.0005,0,4,4,0.9814564862363113,7,8,8,2021_Apr_15_0945,Motor,
0.0005,1,0.0005,0,4,4,1.1342151655845782,8,8,8,2021_Apr_15_0945,Motor,
0.0425,1,0.024500000000000008,0,4,4,0.5691285496999399,9,8,8,2021_Apr_15_0945,Motor,
0.0425,1,0.020000000000000007,90,3,3,1.0367629355513373,10,8,8,2021_Apr_15_0945,Motor,
0.0005,0,0.0005,90,4,3,0.7145598320250883,11,8,8,2021_Apr_15_0945,Motor,
0.0005,1,0.004999999999999999,90,3,3,2.4713894752283068,12,8,8,2021_Apr_15_0945,Motor,
0.0425,1,0.015500000000000007,0,4,4,0.7851162679965,13,8,8,2021_Apr_15_0945,Motor,
0.0425,1,0.011000000000000006,0,4,4,0.7098647223197077,14,8,8,2021_Apr_15_0945,Motor,
0.0005,1,0.004999999999999999,0,4,4,1.2654939196274881,15,8,8,2021_Apr_15_0945,Motor,
0.0425,1,0.006500000000000007,0,4,4,0.6921775179239376,16,8,8,2021_Apr_15_0945,Motor,
0.0005,0,0.004999999999999999,90,4,3,1.1281964243131597,17,8,8,2021_Apr_15_0945,Motor,
0.0425,0,0.002000000000000007,90,4,3,1.5426751181457803,18,8,8,2021_Apr_15_0945,Motor,
0.0005,0,0.009499999999999998,0,3,4,2.4064965849383952,19,8,8,2021_Apr_15_0945,Motor,
0.0005,1,0.013999999999999999,90,3,3,0.8432147466456854,20,8,8,2021_Apr_15_0945,Motor,
0.0425,1,0.006500000000000007,90,3,3,1.7690449155381884,21,8,8,2021_Apr_15_0945,Motor,
0.0425,1,0.006500000000000007,0,4,4,1.2896145801453258,22,8,8,2021_Apr_15_0945,Motor,
0.0005,1,0.013999999999999999,90,3,3,0.7923914416678599,23,8,8,2021_Apr_15_0945,Motor,
0.0425,0,0.006500000000000007,0,3,4,2.0832182947615365,24,8,8,2021_Apr_15_0945,Motor,
0.0005,0,0.013999999999999999,0,3,4,0.9369568147442351,25,8,8,2021_Apr_15_0945,Motor,
0.0425,0,0.011000000000000006,90,4,3,2.189605709855414,26,8,8,2021_Apr_15_0945,Motor,
0.0005,1,0.0185,0,4,4,0.7793202439600009,27,8,8,2021_Apr_15_0945,Motor,
0.0005,1,0.0185,0,4,4,0.9571219403740088,28,8,8,2021_Apr_15_0945,Motor,
0.0425,0,0.015500000000000007,0,3,4,0.7898244335397067,29,8,8,2021_Apr_15_0945,Motor,
0.0425,1,0.020000000000000007,0,4,4,1.0495492087970888,30,8,8,2021_Apr_15_0945,Motor,
0.0005,1,0.0185,90,3,3,1.0144881401151906,31,8,8,2021_Apr_15_0945,Motor,
0.0005,1,0.013999999999999999,90,3,3,0.852154923644548,32,8,8,2021_Apr_15_0945,Motor,
0.0425,1,0.020000000000000007,90,3,3,0.6820626995095154,33,8,8,2021_Apr_15_0945,Motor,
0.0425,1,0.020000000000000007,90,3,3,0.8596128790463808,34,8,8,2021_Apr_15_0945,Motor,
0.0005,1,0.013999999999999999,0,4,4,1.103447931590381,35,8,8,2021_Apr_15_0945,Motor,
0.0425,1,0.015500000000000007,90,3,3,0.786177630818429,36,8,8,2021_Apr_15_0945,Motor,
0.0005,0,0.013999999999999999,0,3,4,0.9499450694820553,37,8,8,2021_Apr_15_0945,Motor,
0.0005,1,0.0185,0,4,4,0.5716786620375842,38,8,8,2021_Apr_15_0945,Motor,
0.0425,1,0.015500000000000007,90,3,3,0.7724225376018694,39,8,8,2021_Apr_15_0945,Motor,
0.0005,1,0.0185,0,4,4,0.8847887584627188,40,8,8,2021_Apr_15_0945,Motor,
0.0425,1,0.015500000000000007,0,4,4,0.6625403818986797,41,8,8,2021_Apr_15_0945,Motor,
0.0425,1,0.011000000000000006,0,4,4,0.8992926423825338,42,8,8,2021_Apr_15_0945,Motor,
0.0005,1,0.0185,0,4,4,0.8611054685145518,43,8,8,2021_Apr_15_0945,Motor,
0.0005,1,0.013999999999999999,0,4,4,1.460873765791348,44,8,8,2021_Apr_15_0945,Motor,
0.0425,1,0.011000000000000006,0,4,4,1.0866055167059585,45,8,8,2021_Apr_15_0945,Motor,
0.0425,1,0.011000000000000006,90,3,3,1.3183032479469148,46,8,8,2021_Apr_15_0945,Motor,
0.0425,0,0.006500000000000007,90,4,3,0.4127760589724403,47,8,8,2021_Apr_15_0945,Motor,
0.0005,1,0.013999999999999999,0,4,4,0.4744353254109228,48,8,8,2021_Apr_15_0945,Motor,
0.0005,1,0.013999999999999999,0,4,4,0.4002597343751404,49,8,8,2021_Apr_15_0945,Motor,
0.0425,0,0.011000000000000006,90,4,3,0.46616214813093393,50,8,8,2021_Apr_15_0945,Motor,
0.0005,1,0.009499999999999998,0,4,4,0.6837772382218645,51,8,8,2021_Apr_15_0945,Motor,
0.0425,1,0.015500000000000007,90,3,3,0.3875030287624668,52,8,8,2021_Apr_15_0945,Motor,
0.0005,0,0.009499999999999998,0,3,4,0.4852927906047171,53,8,8,2021_Apr_15_0945,Motor,
0.0425,1,0.015500000000000007,90,3,3,0.5412543357861068,54,8,8,2021_Apr_15_0945,Motor,
0.0005,1,0.013999999999999999,90,3,3,0.6129543095591998,55,8,8,2021_Apr_15_0945,Motor,
0.0425,0,0.015500000000000007,90,4,3,0.41465725161538103,56,8,8,2021_Apr_15_0945,Motor,
0.0005,1,0.013999999999999999,90,3,3,0.5645359667214507,57,8,8,2021_Apr_15_0945,Motor,
0.0425,1,0.020000000000000007,90,3,3,0.4772008590741734,58,8,8,2021_Apr_15_0945,Motor,
0.0005,1,0.013999999999999999,90,3,3,0.5811525924095804,59,8,8,2021_Apr_15_0945,Motor,
0.0425,1,0.020000000000000007,90,3,3,0.47891347781023796,60,8,8,2021_Apr_15_0945,Motor,
0.0005,1,0.009499999999999998,90,3,3,0.7215873287716477,61,8,8,2021_Apr_15_0945,Motor,
0.0425,1,0.020000000000000007,0,4,4,0.5291281503450591,62,8,8,2021_Apr_15_0945,Motor,
0.0425,1,0.015500000000000007,90,3,3,0.690321284970878,63,8,8,2021_Apr_15_0945,Motor,
0.0005,1,0.009499999999999998,90,3,3,0.42395032023273416,64,8,8,2021_Apr_15_0945,Motor,
0.0425,0,0.015500000000000007,0,3,4,0.6876790137773696,65,8,8,2021_Apr_15_0945,Motor,
0.0005,1,0.009499999999999998,90,3,3,0.5514605450657655,66,8,8,2021_Apr_15_0945,Motor,
0.0425,1,0.020000000000000007,90,3,3,0.4480402611320642,67,8,8,2021_Apr_15_0945,Motor,
0.0005,0,0.004999999999999998,0,3,4,0.8861776692181138,68,8,8,2021_Apr_15_0945,Motor,
0.0005,0,0.009499999999999998,0,3,4,1.0908436720851569,69,8,8,2021_Apr_15_0945,Motor,
0.0425,1,0.020000000000000007,0,4,4,0.4145313011795224,70,8,8,2021_Apr_15_0945,Motor,
0.0425,1,0.020000000000000007,90,3,3,0.5683379035165217,71,8,8,2021_Apr_15_0945,Motor,
0.0005,1,0.013999999999999999,90,3,3,0.5321640166516772,72,8,8,2021_Apr_15_0945,Motor,
0.0005,0,0.013999999999999999,0,3,4,0.6079074602209857,73,8,8,2021_Apr_15_0945,Motor,
0.0425,1,0.015500000000000007,90,3,3,0.6326943524668422,74,8,8,2021_Apr_15_0945,Motor,
0.0425,1,0.015500000000000007,90,3,3,0.7675365822658478,75,8,8,2021_Apr_15_0945,Motor,
0.0005,1,0.0185,90,3,3,0.6652291165150928,76,8,8,2021_Apr_15_0945,Motor,
0.0425,1,0.015500000000000007,0,4,4,0.5991377771053976,77,8,8,2021_Apr_15_0945,Motor,
0.0005,1,0.0185,90,3,3,0.5117876936440098,78,8,8,2021_Apr_15_0945,Motor,
0.0425,0,0.011000000000000006,90,4,3,0.5663491922082358,79,8,8,2021_Apr_15_0945,Motor,
0.0005,1,0.0185,90,3,3,0.472171673516641,80,8,8,2021_Apr_15_0945,Motor,
0.0425,1,0.015500000000000007,0,4,4,0.6298884993045704,81,8,8,2021_Apr_15_0945,Motor,
0.0005,1,0.013999999999999999,90,3,3,0.7836090867097028,82,8,8,2021_Apr_15_0945,Motor,
0.0005,0,0.013999999999999999,90,4,3,0.7053735140823392,83,8,8,2021_Apr_15_0945,Motor,
0.0425,0,0.015500000000000007,90,4,3,0.675248320116907,84,8,8,2021_Apr_15_0945,Motor,
0.0005,1,0.0185,90,3,3,0.45492529564739925,85,8,8,2021_Apr_15_0945,Motor,
0.0425,1,0.020000000000000007,0,4,4,0.6347299111935172,86,8,8,2021_Apr_15_0945,Motor,
0.0425,1,0.020000000000000007,90,3,3,0.41832517407465275,87,8,8,2021_Apr_15_0945,Motor,
0.0005,1,0.0185,0,4,4,0.851311670114228,88,8,8,2021_Apr_15_0945,Motor,
0.0425,1,0.020000000000000007,0,4,4,0.564981785186319,89,8,8,2021_Apr_15_0945,Motor,
0.0005,1,0.0185,90,3,3,0.48108689082505407,90,8,8,2021_Apr_15_0945,Motor,
0.0425,1,0.015500000000000007,0,4,4,0.5846304372284976,91,8,8,2021_Apr_15_0945,Motor,
0.0005,1,0.013999999999999999,90,3,3,0.8563262638531342,92,8,8,2021_Apr_15_0945,Motor,
0.0425,1,0.015500000000000007,0,4,4,0.9212030263431643,93,8,8,2021_Apr_15_0945,Motor,
0.0005,1,0.013999999999999999,0,4,4,0.4666874536085288,94,8,8,2021_Apr_15_0945,Motor,
0.0425,1,0.015500000000000007,0,4,4,0.44433662711639954,95,8,8,2021_Apr_15_0945,Motor,
0.0005,0,0.013999999999999999,90,4,3,0.5021593971889615,96,8,8,2021_Apr_15_0945,Motor,
0.0425,1,0.011000000000000006,90,3,3,0.2189801931419879,97,8,8,2021_Apr_15_0945,Motor,
