start,accuracy_gabor,delta,orientation,pressed_gabor,expected_gabor,rt_gabor,trial,participant,response condition,date,expName,
0.02,1,0.02,90,x,x,0.6621037950881146,0,3,1,2021_Jun_04_1049,Motor,
0.02,1,0.01835,90,x,x,0.8117158844452206,1,3,1,2021_Jun_04_1049,Motor,
0.0305,1,0.0305,90,x,x,0.4933334818106232,2,3,1,2021_Jun_04_1049,Motor,
0.0305,1,0.02885,90,x,x,0.5482599700171704,3,3,1,2021_Jun_04_1049,Motor,
0.02,1,0.016700000000000003,0,n,n,0.45611256858137494,4,3,1,2021_Jun_04_1049,Motor,
0.0305,1,0.027200000000000002,0,n,n,0.552829113496955,5,3,1,2021_Jun_04_1049,Motor,
0.02,1,0.015050000000000003,0,n,n,0.9245091021912231,6,3,1,2021_Jun_04_1049,Motor,
0.0305,1,0.025550000000000003,90,x,x,0.5131786708279833,7,3,1,2021_Jun_04_1049,Motor,
0.02,0,0.013400000000000002,90,n,x,1.234973166506279,8,3,1,2021_Jun_04_1049,Motor,
0.02,1,0.015050000000000003,0,n,n,0.7478024028805521,9,3,1,2021_Jun_04_1049,Motor,
0.0305,1,0.023900000000000005,90,x,x,0.5154334830394873,10,3,1,2021_Jun_04_1049,Motor,
0.0305,1,0.022250000000000006,0,n,n,0.4814346626690167,11,3,1,2021_Jun_04_1049,Motor,
0.02,1,0.015050000000000003,0,n,n,0.7762859187896538,12,3,1,2021_Jun_04_1049,Motor,
0.0305,1,0.020600000000000007,0,n,n,0.5629554167717288,13,3,1,2021_Jun_04_1049,Motor,
0.02,1,0.015050000000000003,90,x,x,0.5828117416122041,14,3,1,2021_Jun_04_1049,Motor,
0.02,1,0.013400000000000002,90,x,x,1.1894510730326147,15,3,1,2021_Jun_04_1049,Motor,
0.0305,1,0.01895000000000001,0,n,n,1.16041537388719,16,3,1,2021_Jun_04_1049,Motor,
0.02,1,0.013400000000000002,90,x,x,1.0561245491917362,17,3,1,2021_Jun_04_1049,Motor,
0.0305,1,0.01730000000000001,0,n,n,0.7759998433302826,18,3,1,2021_Jun_04_1049,Motor,
0.0305,1,0.01565000000000001,0,n,n,0.7358114252010637,19,3,1,2021_Jun_04_1049,Motor,
0.02,0,0.013400000000000002,90,n,x,1.2526272862996848,20,3,1,2021_Jun_04_1049,Motor,
0.02,1,0.015050000000000003,90,x,x,1.1205353028635727,21,3,1,2021_Jun_04_1049,Motor,
0.0305,0,0.01400000000000001,0,x,n,0.7741113613046764,22,3,1,2021_Jun_04_1049,Motor,
0.0305,1,0.01565000000000001,0,n,n,0.6170351984173976,23,3,1,2021_Jun_04_1049,Motor,
0.02,1,0.015050000000000003,90,x,x,0.5709125384764775,24,3,1,2021_Jun_04_1049,Motor,
0.0305,1,0.01565000000000001,90,x,x,0.8105151355030102,25,3,1,2021_Jun_04_1049,Motor,
0.02,1,0.015050000000000003,0,n,n,0.5405040611194636,26,3,1,2021_Jun_04_1049,Motor,
0.02,1,0.013400000000000002,90,x,x,0.8653137537403381,27,3,1,2021_Jun_04_1049,Motor,
0.0305,0,0.01565000000000001,0,x,n,0.716193944569568,28,3,1,2021_Jun_04_1049,Motor,
0.0305,1,0.01730000000000001,0,n,n,0.7377671061603905,29,3,1,2021_Jun_04_1049,Motor,
0.02,1,0.013400000000000002,90,x,x,0.5664831687790866,30,3,1,2021_Jun_04_1049,Motor,
0.0305,1,0.01730000000000001,90,x,x,1.253277003987023,31,3,1,2021_Jun_04_1049,Motor,
0.02,0,0.013400000000000002,90,n,x,1.0701007753605154,32,3,1,2021_Jun_04_1049,Motor,
0.02,1,0.015050000000000003,0,n,n,0.6378073487221627,33,3,1,2021_Jun_04_1049,Motor,
0.0305,1,0.01730000000000001,90,x,x,0.5734230906282392,34,3,1,2021_Jun_04_1049,Motor,
0.0305,1,0.01565000000000001,90,x,x,1.3898663240415772,35,3,1,2021_Jun_04_1049,Motor,
0.02,1,0.015050000000000003,0,n,n,0.9783742312438335,36,3,1,2021_Jun_04_1049,Motor,
0.0305,1,0.01565000000000001,0,n,n,1.358373063902036,37,3,1,2021_Jun_04_1049,Motor,
0.02,0,0.015050000000000003,90,n,x,1.0661567739598468,38,3,1,2021_Jun_04_1049,Motor,
0.02,1,0.016700000000000003,90,x,x,0.9017275117803365,39,3,1,2021_Jun_04_1049,Motor,
0.02,1,0.016700000000000003,90,x,x,1.3753440585396675,40,3,1,2021_Jun_04_1049,Motor,
0.0305,0,0.01565000000000001,0,x,n,1.3702008441723592,41,3,1,2021_Jun_04_1049,Motor,
0.0305,0,0.01730000000000001,90,n,x,0.9781023635587189,42,3,1,2021_Jun_04_1049,Motor,
0.02,1,0.016700000000000003,90,x,x,0.6608496709941392,43,3,1,2021_Jun_04_1049,Motor,
0.02,0,0.015050000000000003,90,n,x,0.9257597703408464,44,3,1,2021_Jun_04_1049,Motor,
0.0305,1,0.01895000000000001,90,x,x,0.6624436296942804,45,3,1,2021_Jun_04_1049,Motor,
0.0305,1,0.01895000000000001,0,n,n,0.6062994968142448,46,3,1,2021_Jun_04_1049,Motor,
0.02,1,0.016700000000000003,0,n,n,0.5402060818487371,47,3,1,2021_Jun_04_1049,Motor,
0.0305,1,0.01895000000000001,90,x,x,0.8730166714794905,48,3,1,2021_Jun_04_1049,Motor,
0.02,1,0.016700000000000003,90,x,x,0.7487957951134376,49,3,1,2021_Jun_04_1049,Motor,
0.02,1,0.016700000000000003,90,x,x,0.628569223348677,50,3,1,2021_Jun_04_1049,Motor,
0.0305,1,0.01730000000000001,90,x,x,1.0504591031130985,51,3,1,2021_Jun_04_1049,Motor,
0.02,0,0.015050000000000003,90,n,x,0.8222473012901901,52,3,1,2021_Jun_04_1049,Motor,
0.0305,1,0.01730000000000001,90,x,x,0.6830687103329183,53,3,1,2021_Jun_04_1049,Motor,
0.02,1,0.016700000000000003,90,x,x,0.5218646129651461,54,3,1,2021_Jun_04_1049,Motor,
0.0305,0,0.01730000000000001,0,x,n,1.4636334732094838,55,3,1,2021_Jun_04_1049,Motor,
0.0305,1,0.01895000000000001,90,x,x,0.6634750373241332,56,3,1,2021_Jun_04_1049,Motor,
0.02,1,0.016700000000000003,0,n,n,0.9821773068815673,57,3,1,2021_Jun_04_1049,Motor,
0.02,1,0.016700000000000003,90,x,x,0.7370820610340161,58,3,1,2021_Jun_04_1049,Motor,
0.02,1,0.015050000000000003,90,x,x,0.7083988682925337,59,3,1,2021_Jun_04_1049,Motor,
0.0305,1,0.01895000000000001,90,x,x,0.7111908879778639,60,3,1,2021_Jun_04_1049,Motor,
0.0305,1,0.01895000000000001,0,n,n,0.4647693271817843,61,3,1,2021_Jun_04_1049,Motor,
0.02,0,0.015050000000000003,0,x,n,0.5755412010094005,62,3,1,2021_Jun_04_1049,Motor,
0.0305,1,0.01730000000000001,90,x,x,0.7404362477955146,63,3,1,2021_Jun_04_1049,Motor,
0.02,1,0.016700000000000003,90,x,x,0.6481851680055115,64,3,1,2021_Jun_04_1049,Motor,
0.0305,1,0.01730000000000001,90,x,x,0.5200237461831421,65,3,1,2021_Jun_04_1049,Motor,
0.02,1,0.016700000000000003,0,n,n,0.5977982557460564,66,3,1,2021_Jun_04_1049,Motor,
0.0305,1,0.01730000000000001,0,n,n,0.5317282644091392,67,3,1,2021_Jun_04_1049,Motor,
0.02,1,0.016700000000000003,90,x,x,0.5844690593075939,68,3,1,2021_Jun_04_1049,Motor,
0.0305,1,0.01565000000000001,0,n,n,0.9244910544784943,69,3,1,2021_Jun_04_1049,Motor,
0.02,1,0.015050000000000003,90,x,x,0.5851030332441951,70,3,1,2021_Jun_04_1049,Motor,
0.02,0,0.015050000000000003,0,x,n,0.6798466174750502,71,3,1,2021_Jun_04_1049,Motor,
0.0305,0,0.01565000000000001,90,n,x,0.4625763379890486,72,3,1,2021_Jun_04_1049,Motor,
0.0305,1,0.01730000000000001,0,n,n,0.5384569896114044,73,3,1,2021_Jun_04_1049,Motor,
0.02,1,0.016700000000000003,0,n,n,0.7672597580531146,74,3,1,2021_Jun_04_1049,Motor,
0.02,1,0.016700000000000003,0,n,n,0.6831601008825601,75,3,1,2021_Jun_04_1049,Motor,
0.02,0,0.016700000000000003,90,n,x,0.6326019273419661,76,3,1,2021_Jun_04_1049,Motor,
0.0305,1,0.01730000000000001,90,x,x,0.5613395704185677,77,3,1,2021_Jun_04_1049,Motor,
0.0305,0,0.01730000000000001,90,n,x,0.6772250910826187,78,3,1,2021_Jun_04_1049,Motor,
0.02,1,0.01835,90,x,x,0.6889610968100897,79,3,1,2021_Jun_04_1049,Motor,
0.02,1,0.01835,0,n,n,0.49163814871917566,80,3,1,2021_Jun_04_1049,Motor,
0.0305,1,0.01895000000000001,0,n,n,0.6293974982027066,81,3,1,2021_Jun_04_1049,Motor,
0.02,1,0.01835,0,n,n,0.5941821851401983,82,3,1,2021_Jun_04_1049,Motor,
0.0305,1,0.01895000000000001,90,x,x,0.5422389455834491,83,3,1,2021_Jun_04_1049,Motor,
0.02,1,0.016700000000000003,90,x,x,0.6099286232129089,84,3,1,2021_Jun_04_1049,Motor,
0.02,1,0.016700000000000003,0,n,n,0.6236852048687069,85,3,1,2021_Jun_04_1049,Motor,
0.0305,1,0.01895000000000001,0,n,n,0.7135432346422022,86,3,1,2021_Jun_04_1049,Motor,
0.02,1,0.016700000000000003,90,x,x,0.6994387545082645,87,3,1,2021_Jun_04_1049,Motor,
0.0305,1,0.01730000000000001,0,n,n,0.7012354619901089,88,3,1,2021_Jun_04_1049,Motor,
0.0305,1,0.01730000000000001,90,x,x,0.5551100372931614,89,3,1,2021_Jun_04_1049,Motor,
0.02,1,0.015050000000000003,0,n,n,0.6146909156259426,90,3,1,2021_Jun_04_1049,Motor,
0.02,1,0.015050000000000003,0,n,n,0.6927395968368728,91,3,1,2021_Jun_04_1049,Motor,
0.0305,1,0.01730000000000001,90,x,x,0.488644148239473,92,3,1,2021_Jun_04_1049,Motor,
0.02,1,0.015050000000000003,90,x,x,0.5302944311670217,93,3,1,2021_Jun_04_1049,Motor,
0.0305,1,0.01565000000000001,0,n,n,0.6111470358746374,94,3,1,2021_Jun_04_1049,Motor,
0.02,1,0.013400000000000002,0,n,n,0.5810630333671725,95,3,1,2021_Jun_04_1049,Motor,
0.0305,1,0.01565000000000001,90,x,x,0.47986374360243644,96,3,1,2021_Jun_04_1049,Motor,
0.02,0,0.013400000000000002,0,x,n,1.0066730460848703,97,3,1,2021_Jun_04_1049,Motor,
0.0305,0,0.01565000000000001,0,x,n,0.556461311845851,98,3,1,2021_Jun_04_1049,Motor,
0.0305,1,0.01730000000000001,90,x,x,0.45626962208916666,99,3,1,2021_Jun_04_1049,Motor,
0.02,1,0.015050000000000003,0,n,n,0.49716574098511046,100,3,1,2021_Jun_04_1049,Motor,
0.0305,1,0.01730000000000001,90,x,x,0.5307870953474776,101,3,1,2021_Jun_04_1049,Motor,
0.02,0,0.015050000000000003,0,x,n,0.5983416071221654,102,3,1,2021_Jun_04_1049,Motor,
0.0305,1,0.01730000000000001,90,x,x,0.5371817458517398,103,3,1,2021_Jun_04_1049,Motor,
0.02,1,0.016700000000000003,0,n,n,0.5699364259689901,104,3,1,2021_Jun_04_1049,Motor,
0.02,1,0.016700000000000003,0,n,n,0.42869309978323145,105,3,1,2021_Jun_04_1049,Motor,
0.0305,1,0.01565000000000001,0,n,n,0.7656458316687349,106,3,1,2021_Jun_04_1049,Motor,
