start,accuracy_gabor,delta,orientation,pressed_gabor,expected_gabor,rt_gabor,trial,participant,response condition,date,expName,
0.0425,1,0.0425,90,4,4,0.7270700839944766,0,15,7,2021_Apr_23_1550,Motor,
0.0005,1,0.0005,0,3,3,1.0725446180008475,1,15,7,2021_Apr_23_1550,Motor,
0.0005,1,0.0005,0,3,3,0.6992901515923222,2,15,7,2021_Apr_23_1550,Motor,
0.0425,1,0.038000000000000006,90,4,4,0.6030628004259597,3,15,7,2021_Apr_23_1550,Motor,
0.0005,1,0.0005,0,3,3,1.256901687953814,4,15,7,2021_Apr_23_1550,Motor,
0.0425,1,0.03350000000000001,90,4,4,0.6355523999909565,5,15,7,2021_Apr_23_1550,Motor,
0.0425,1,0.02900000000000001,90,4,4,0.5933274403291762,6,15,7,2021_Apr_23_1550,Motor,
0.0005,0,0.0005,0,4,3,1.0831766004230303,7,15,7,2021_Apr_23_1550,Motor,
0.0425,1,0.024500000000000008,90,4,4,1.3638051806719886,8,15,7,2021_Apr_23_1550,Motor,
0.0005,0,0.004999999999999999,90,3,4,0.7084126597696923,9,15,7,2021_Apr_23_1550,Motor,
0.0005,1,0.009499999999999998,90,4,4,0.9392596933130335,10,15,7,2021_Apr_23_1550,Motor,
0.0425,0,0.020000000000000007,90,3,4,1.1400435754612772,11,15,7,2021_Apr_23_1550,Motor,
0.0425,1,0.024500000000000008,0,3,3,1.362940813710793,12,15,7,2021_Apr_23_1550,Motor,
0.0005,1,0.009499999999999998,90,4,4,1.1697046867816425,13,15,7,2021_Apr_23_1550,Motor,
0.0005,1,0.009499999999999998,0,3,3,1.148405778625147,14,15,7,2021_Apr_23_1550,Motor,
0.0425,1,0.024500000000000008,0,3,3,0.8661402386437658,15,15,7,2021_Apr_23_1550,Motor,
0.0425,1,0.024500000000000008,90,4,4,0.6179732265118218,16,15,7,2021_Apr_23_1550,Motor,
0.0005,1,0.004999999999999998,90,4,4,0.9626141129506323,17,15,7,2021_Apr_23_1550,Motor,
0.0425,1,0.020000000000000007,90,4,4,1.2844128256547265,18,15,7,2021_Apr_23_1550,Motor,
0.0005,1,0.004999999999999998,90,4,4,1.1442744040627986,19,15,7,2021_Apr_23_1550,Motor,
0.0425,0,0.020000000000000007,90,3,4,0.8829418274508498,20,15,7,2021_Apr_23_1550,Motor,
0.0005,0,0.004999999999999998,90,3,4,1.0637365996240078,21,15,7,2021_Apr_23_1550,Motor,
0.0005,0,0.009499999999999998,0,4,3,1.1604416373743334,22,15,7,2021_Apr_23_1550,Motor,
0.0425,1,0.024500000000000008,0,3,3,0.645364174581573,23,15,7,2021_Apr_23_1550,Motor,
0.0005,1,0.013999999999999999,0,3,3,2.1259283976992265,24,15,7,2021_Apr_23_1550,Motor,
0.0425,1,0.024500000000000008,90,4,4,0.9156610544896466,25,15,7,2021_Apr_23_1550,Motor,
0.0425,1,0.024500000000000008,0,3,3,0.8474259835388693,26,15,7,2021_Apr_23_1550,Motor,
0.0005,1,0.013999999999999999,0,3,3,0.9622228246635132,27,15,7,2021_Apr_23_1550,Motor,
0.0005,1,0.013999999999999999,0,3,3,0.7401431062990014,28,15,7,2021_Apr_23_1550,Motor,
0.0425,1,0.020000000000000007,0,3,3,0.5238240423800562,29,15,7,2021_Apr_23_1550,Motor,
0.0425,1,0.020000000000000007,90,4,4,0.5014875866768307,30,15,7,2021_Apr_23_1550,Motor,
0.0005,0,0.009499999999999998,0,4,3,1.0672366906305797,31,15,7,2021_Apr_23_1550,Motor,
0.0425,1,0.020000000000000007,0,3,3,0.5262289869742744,32,15,7,2021_Apr_23_1550,Motor,
0.0005,1,0.013999999999999999,0,3,3,0.7308028744137118,33,15,7,2021_Apr_23_1550,Motor,
0.0425,1,0.015500000000000007,0,3,3,0.5676026354167334,34,15,7,2021_Apr_23_1550,Motor,
0.0005,1,0.013999999999999999,0,3,3,1.1933839640155384,35,15,7,2021_Apr_23_1550,Motor,
0.0005,1,0.013999999999999999,0,3,3,0.7441631230567509,36,15,7,2021_Apr_23_1550,Motor,
0.0425,1,0.015500000000000007,90,4,4,0.21603414153514677,37,15,7,2021_Apr_23_1550,Motor,
0.0425,1,0.015500000000000007,90,4,4,1.2238053803484945,38,15,7,2021_Apr_23_1550,Motor,
0.0005,1,0.009499999999999998,90,4,4,0.8473050259235606,39,15,7,2021_Apr_23_1550,Motor,
0.0425,1,0.011000000000000006,0,3,3,0.9221800939862987,40,15,7,2021_Apr_23_1550,Motor,
0.0005,1,0.009499999999999998,0,3,3,0.6479192602155308,41,15,7,2021_Apr_23_1550,Motor,
0.0425,0,0.011000000000000006,90,3,4,0.5765696266594205,42,15,7,2021_Apr_23_1550,Motor,
0.0005,1,0.009499999999999998,0,3,3,0.8113276231101736,43,15,7,2021_Apr_23_1550,Motor,
0.0005,1,0.004999999999999998,90,4,4,0.8573268443733468,44,15,7,2021_Apr_23_1550,Motor,
0.0425,0,0.015500000000000007,90,3,4,0.5067843782662749,45,15,7,2021_Apr_23_1550,Motor,
0.0005,1,0.004999999999999998,90,4,4,0.7452367658929688,46,15,7,2021_Apr_23_1550,Motor,
0.0005,0,0.004999999999999998,0,4,3,1.0968636266243266,47,15,7,2021_Apr_23_1550,Motor,
0.0425,1,0.020000000000000007,0,3,3,0.8577127567659772,48,15,7,2021_Apr_23_1550,Motor,
0.0425,1,0.020000000000000007,90,4,4,0.8324579585887477,49,15,7,2021_Apr_23_1550,Motor,
0.0005,1,0.009499999999999998,0,3,3,1.1181978620834343,50,15,7,2021_Apr_23_1550,Motor,
0.0425,0,0.020000000000000007,0,4,3,2.6250244795173785,51,15,7,2021_Apr_23_1550,Motor,
0.0005,0,0.009499999999999998,0,4,3,1.3116847360702195,52,15,7,2021_Apr_23_1550,Motor,
0.0005,1,0.013999999999999999,0,3,3,1.0044374165299814,53,15,7,2021_Apr_23_1550,Motor,
0.0425,1,0.024500000000000008,90,4,4,1.1311806461667402,54,15,7,2021_Apr_23_1550,Motor,
0.0425,1,0.024500000000000008,90,4,4,1.2660449317222628,55,15,7,2021_Apr_23_1550,Motor,
0.0005,1,0.013999999999999999,90,4,4,1.3546450412368358,56,15,7,2021_Apr_23_1550,Motor,
0.0425,1,0.024500000000000008,0,3,3,0.5324135690639196,57,15,7,2021_Apr_23_1550,Motor,
0.0005,1,0.013999999999999999,0,3,3,0.6582908957698237,58,15,7,2021_Apr_23_1550,Motor,
0.0005,1,0.009499999999999998,0,3,3,1.0880694319753275,59,15,7,2021_Apr_23_1550,Motor,
0.0425,1,0.020000000000000007,90,4,4,0.8145980866424907,60,15,7,2021_Apr_23_1550,Motor,
0.0425,1,0.020000000000000007,0,3,3,0.5725887771300222,61,15,7,2021_Apr_23_1550,Motor,
0.0005,1,0.009499999999999998,0,3,3,1.0822527146342509,62,15,7,2021_Apr_23_1550,Motor,
0.0005,1,0.009499999999999998,90,4,4,1.0090768130776269,63,15,7,2021_Apr_23_1550,Motor,
0.0425,1,0.020000000000000007,90,4,4,0.7029257919266456,64,15,7,2021_Apr_23_1550,Motor,
0.0425,1,0.015500000000000007,90,4,4,1.0955273329650481,65,15,7,2021_Apr_23_1550,Motor,
0.0005,0,0.004999999999999998,90,3,4,0.5113181768961113,66,15,7,2021_Apr_23_1550,Motor,
0.0005,0,0.009499999999999998,0,4,3,2.284213533582715,67,15,7,2021_Apr_23_1550,Motor,
0.0425,1,0.015500000000000007,0,3,3,0.7148483729092732,68,15,7,2021_Apr_23_1550,Motor,
0.0425,1,0.015500000000000007,90,4,4,1.6734908521484613,69,15,7,2021_Apr_23_1550,Motor,
0.0005,1,0.013999999999999999,0,3,3,0.9192072245873533,70,15,7,2021_Apr_23_1550,Motor,
0.0425,1,0.011000000000000006,0,3,3,0.8490157122023447,71,15,7,2021_Apr_23_1550,Motor,
0.0005,0,0.013999999999999999,0,4,3,1.6347817271825988,72,15,7,2021_Apr_23_1550,Motor,
0.0425,1,0.011000000000000006,0,3,3,1.696437471824538,73,15,7,2021_Apr_23_1550,Motor,
0.0005,1,0.0185,90,4,4,0.6812067960518107,74,15,7,2021_Apr_23_1550,Motor,
0.0005,1,0.0185,0,3,3,0.5659602997902766,75,15,7,2021_Apr_23_1550,Motor,
0.0425,0,0.011000000000000006,0,4,3,1.0518474259833965,76,15,7,2021_Apr_23_1550,Motor,
0.0425,1,0.015500000000000007,90,4,4,1.1204753211904972,77,15,7,2021_Apr_23_1550,Motor,
0.0005,1,0.0185,0,3,3,0.9562763178814748,78,15,7,2021_Apr_23_1550,Motor,
0.0005,1,0.013999999999999999,0,3,3,1.1305013635574142,79,15,7,2021_Apr_23_1550,Motor,
0.0425,0,0.015500000000000007,0,4,3,1.1922684660039522,80,15,7,2021_Apr_23_1550,Motor,
0.0005,1,0.013999999999999999,90,4,4,1.234056058287024,81,15,7,2021_Apr_23_1550,Motor,
0.0425,1,0.020000000000000007,0,3,3,0.520654952849327,82,15,7,2021_Apr_23_1550,Motor,
0.0005,1,0.013999999999999999,90,4,4,0.5184285647360412,83,15,7,2021_Apr_23_1550,Motor,
0.0425,1,0.020000000000000007,90,4,4,1.0061780542182532,84,15,7,2021_Apr_23_1550,Motor,
0.0425,1,0.020000000000000007,0,3,3,0.9031087259209016,85,15,7,2021_Apr_23_1550,Motor,
0.0005,1,0.009499999999999998,90,4,4,1.2207207691521944,86,15,7,2021_Apr_23_1550,Motor,
0.0005,0,0.009499999999999998,90,3,4,1.4845592803671934,87,15,7,2021_Apr_23_1550,Motor,
0.0425,1,0.015500000000000007,0,3,3,1.7922543350828164,88,15,7,2021_Apr_23_1550,Motor,
0.0005,0,0.013999999999999999,0,4,3,1.0551128976144355,89,15,7,2021_Apr_23_1550,Motor,
0.0425,1,0.015500000000000007,0,3,3,0.949672416057183,90,15,7,2021_Apr_23_1550,Motor,
0.0425,1,0.015500000000000007,0,3,3,1.1665229254999758,91,15,7,2021_Apr_23_1550,Motor,
0.0005,1,0.0185,90,4,4,0.6312359410771933,92,15,7,2021_Apr_23_1550,Motor,
0.0005,1,0.0185,0,3,3,0.5719958928170854,93,15,7,2021_Apr_23_1550,Motor,
0.0425,1,0.011000000000000006,90,4,4,1.0637561832381834,94,15,7,2021_Apr_23_1550,Motor,
0.0005,1,0.0185,0,3,3,0.6685961006337493,95,15,7,2021_Apr_23_1550,Motor,
0.0425,1,0.011000000000000006,90,4,4,1.7492391189985028,96,15,7,2021_Apr_23_1550,Motor,
0.0425,1,0.011000000000000006,0,3,3,1.9889721213812663,97,15,7,2021_Apr_23_1550,Motor,
0.0005,1,0.013999999999999999,90,4,4,2.221650030834553,98,15,7,2021_Apr_23_1550,Motor,
