subject_id;trial;block;cond_order;stim1;size;circle_pos;gabor_contrast;response;expected_gabor;rt_gabor;max_speed;x_pos;y_pos;center_distance;total_distance;accuracy_gabor;cursor_av_speed;move_start_time;OOZ_time;SDT;pressed_conf;conf;rt_conf;trial_start_time;view_again;meta_evaluation;meta_accuracy;exp_start_date
1;1;1;A;0;small;up;0.017;right;right;1.3854;106.80274585384576;12.132;9.0368;0.1370084693671892;15.419255464017263;1;10.919332564934917;0.6035512999515049;0.6701689999899827;hit;RIGHT;N;1.1582;0;0;-1;-1;14:23:53
1;2;1;A;90;big;up;0.017;right;left;1.3347;129.6197700189378;11.1153;9.4209;0.9797083219538234;16.190837364172726;0;10.917185920729008;0.553712600027211;0.6035758000216447;FA;RIGHT;O;0.9247;10436;1;I;right;14:23:53
1;3;1;A;0;small;mid;0.017;right;right;1.685;149.4917400528238;14.9334;0.0226;0.0703435275174576;16.703366948280387;1;8.862497879327512;0.6033009000238962;0.7533912000362761;hit;RIGHT;N;1.5926;19163;0;-1;-1;14:23:53
1;4;1;A;90;big;down;0.017;left;left;1.5184;106.686027205213;-10.6183;-7.975;1.7203828894032844;14.418814087923211;1;8.745986186052846;0.704980299982708;1.053923900006339;CR;LEFT;O;0.708;25199;1;C;right;14:23:53
1;5;1;A;0;big;up;0.017;right;right;1.8695;167.2699351193598;11.6123;8.3817;0.7297995136930504;30.88027705374361;1;7.660407492001431;0.11982630001148209;0.5669750000233762;hit;-1;0;0.8581;37802;0;-1;-1;14:23:53
1;6;1;A;90;small;down;0.017;left;left;1.3357;118.35211002121089;-11.8609;-8.8787;0.18459421136243623;14.895269376629214;1;11.091984115853622;0.5530902000027709;0.5871061999932863;CR;LEFT;O;0.6585;43078;1;C;right;14:23:53
1;7;1;A;90;small;up;0.017;left;left;1.8186;133.7869270415121;-11.8834;9.0594;0.13083106068940864;16.152775482729485;1;8.216902523509816;0.8035513999639079;0.8700196999707259;CR;RIGHT;N;1.346;50211;0;-1;-1;14:23:53
1;8;1;A;90;big;mid;0.017;left;left;0.9856;124.01321606411182;-13.3068;-0.0904;1.6956583859096401;13.353020840655176;1;13.50164391687936;0.4868834000080824;0.5370753000024706;CR;RIGHT;O;0.7367;55894;1;C;left;14:23:53
1;9;1;A;0;big;mid;0.017;right;right;1.1017;108.39551732256562;13.5779;0.1356;1.4285888784949745;13.583634573761628;1;12.325394411774823;0.47006889997282997;0.5201987999607809;hit;RIGHT;N;0.7074;62470;0;-1;-1;14:23:53
1;10;1;A;90;big;mid;0.017;left;left;1.0018;134.79099576905705;-13.4423;-0.2937;1.5851419269506708;13.447672837655153;1;13.421831957280304;0.48702360002789646;0.553465300006792;CR;RIGHT;O;0.7249;66811;1;C;left;14:23:53
1;11;1;A;0;big;down;0.017;right;right;0.8025;137.97284330299757;12.2675;-8.6754;0.42065312055666104;15.595481482474163;1;18.723368977655454;0.3870217999792658;0.45392569998512045;hit;RIGHT;N;1.7431;73531;0;-1;-1;14:23:53
1;12;1;A;0;big;mid;0.017;left;right;1.2181;111.48472503121633;-13.239;0.113;1.7646441432780224;13.294492768592717;0;10.868541208227109;0.6199953000177629;0.687138999986928;miss;RIGHT;O;0.6892;78766;1;C;left;14:23:53
1;13;1;A;90;big;down;0.017;left;left;1.1676;80.20663334853982;-10.7087;-8.2009;1.5185737910372283;13.59432216106147;1;11.552426344297626;0.4882299000164494;0.5550586000317708;CR;RIGHT;N;0.8036;85779;0;-1;-1;14:23:53
1;14;1;A;0;big;up;0.017;left;right;0.9014;107.85143744456286;-10.6861;8.2687;1.5037297811561636;14.536134038505002;0;14.98902284610307;0.4202633000095375;0.4535248000174761;miss;RIGHT;O;0.7583;90402;1;C;left;14:23:53
1;15;1;A;90;small;mid;0.017;left;left;1.7527;125.07891777014612;-14.8204;0.1581;0.2392860454904746;14.866211707671278;1;8.45625452870123;0.9371697999886237;1.0040444000042044;CR;RIGHT;O;2.0919;97444;1;C;left;14:23:53
1;16;1;A;90;small;mid;0.017;left;left;1.9015;113.58122608554186;-15.0915;-0.0678;0.11389021785326811;15.24077836705591;1;7.936671082962324;0.9868245999678038;1.2035353999817744;CR;LEFT;N;1.0247;106061;0;-1;-1;14:23:53
1;17;1;A;0;big;down;0.017;left;right;1.7849;179.82431508810896;-11.906;-8.585;0.4255027773472818;15.566369486543593;0;8.22344879655701;1.270929199992679;1.321233500028029;miss;LEFT;O;1.2085;111528;1;C;right;14:23:53
1;18;1;A;0;small;mid;0.017;left;right;2.1688;117.46891394943775;-14.9786;0.0226;0.03114100823590196;15.159511451468932;0;6.9064350008207605;0.7038015000289306;1.454405200027395;miss;LEFT;N;1.8225;119964;0;-1;-1;14:23:53
1;19;1;A;90;big;up;0.017;left;left;1.0345;186.02208685283932;-12.4257;9.7824;0.8906785344811127;16.58271657645016;1;15.286217093925684;0.4537743999972008;0.5205641000065953;CR;LEFT;O;1.4758;126510;1;C;right;14:23:53
1;20;1;A;90;small;down;0.017;left;left;1.4514;180.42149083639933;-11.8609;-9.0594;0.15130582771091663;22.90247809863127;1;10.282938700049131;0.45363519998500124;0.5036631999537349;CR;RIGHT;O;1.6096;134353;1;C;right;14:23:53
1;21;1;A;0;small;down;0.017;left;right;1.3351;106.1799888217069;-12.0642;-8.7883;0.2211877553286093;16.17728711790948;0;11.179471137140402;0.5220276000327431;0.5879440000280738;miss;RIGHT;N;1.2238;144719;0;-1;-1;14:23:53
1;22;1;A;0;small;up;0.017;left;right;1.9677;93.37185390557028;-11.9286;8.8335;0.18113762862297225;15.249933203165183;0;7.543511450161587;0.8371742000454105;1.1368799000047147;miss;LEFT;N;1.4585;150031;0;-1;-1;14:23:53
1;23;1;A;0;small;down;0.017;left;right;2.3681;107.0485612177074;-12.0642;-9.0594;0.0874774795154575;20.30522174138168;0;6.370959898230295;0.6036103999940678;0.6699969000183046;miss;LEFT;O;0.7248;156104;1;C;right;14:23:53
1;24;1;A;90;small;up;0.017;left;left;1.5182;108.42996340725465;-11.8157;8.9465;0.1919418623973649;15.587153344504914;1;9.762004464836584;0.5708813000237569;0.63697890000185;CR;LEFT;N;1.1251;165837;0;-1;-1;14:23:53
1;25;2;A;90;small;down;0.017;left;left;1.4349;138.3218655735488;-12.0868;-8.9239;0.11543058236454451;15.088612770319473;1;10.470869426230323;0.8701932999538258;0.9540237999754027;CR;LEFT;O;1.0926;181176;1;C;right;14:23:53
1;26;2;A;0;big;up;0.017;left;right;1.3023;223.9665058343119;-12.4708;8.6076;0.6129247581161485;18.0935795229393;0;11.63563291648284;0.48654650000389665;0.6034063999541104;miss;LEFT;N;0.6426;188846;0;-1;-1;14:23:53
1;27;2;A;90;big;mid;0.017;left;left;1.501;140.45306344054563;-14.1201;-0.4067;0.9693566557192733;14.568602862251765;1;9.411009148365078;0.20358630002010614;1.02018059999682;CR;LEFT;N;0.8676;193343;0;-1;-1;14:23:53
1;28;2;A;90;big;mid;0.017;left;left;1.0176;133.34795369167907;-14.233;-0.3615;0.8478853866064129;14.26929904437809;1;13.991015742365015;0.554942500020843;0.603550500003621;CR;LEFT;N;0.6404;198369;0;-1;-1;14:23:53
1;29;2;A;90;big;down;0.017;left;left;0.9841;120.4486839493522;-10.6409;-9.3531;1.40424445503279;14.279643253461428;1;14.396422661186842;0.2867088000057265;0.5703973000054248;CR;LEFT;O;0.7917;202577;1;C;right;14:23:53
1;30;2;A;90;small;down;0.017;left;left;2.268;120.32257557159849;-11.906;-8.9691;0.09892025833214248;15.509788896717616;1;6.572377291587163;1.0551600999897346;1.4870152000221424;CR;LEFT;N;0.9892;209678;0;-1;-1;14:23:53
1;31;2;A;0;big;down;0.017;right;right;1.9187;148.1763756224747;11.6801;-8.2687;0.798189512671373;14.921421076915378;1;7.458652894123121;0.5200222000130452;1.4708717000321485;hit;LEFT;O;0.7247;215664;1;C;right;14:23:53
1;32;2;A;90;small;up;0.017;left;left;1.286;212.3574221061636;-12.132;9.082;0.15537818877304396;16.234587093033753;1;11.784472710112068;0.6376469999668188;0.671049700002186;CR;RIGHT;N;1.0739;223161;0;-1;-1;14:23:53
1;33;2;A;0;small;up;0.017;right;right;1.3525;179.35126340330066;12.2223;8.9917;0.22248662286240853;16.023879047337942;1;11.219176109928792;0.6542811999679543;0.7050090999691747;hit;RIGHT;O;1.8917;228264;1;C;right;14:23:53
1;34;2;A;90;small;up;0.017;left;left;1.3348;111.53234510461455;-12.2449;9.0143;0.24533656580513685;16.222631820804743;1;11.391237009585176;0.5035100000095554;0.5378700000001118;CR;RIGHT;N;0.6763;236429;0;-1;-1;14:23:53
1;35;2;A;0;big;up;0.017;right;right;0.9341;129.02419108855375;11.409;7.975;1.1831569603789966;14.292156126213268;1;14.901324254365464;0.06969580001896247;0.4540362000116147;hit;RIGHT;N;0.7624;241103;0;-1;-1;14:23:53
1;36;2;A;0;small;up;0.017;right;right;1.5356;133.42719052584198;11.906;9.1046;0.14061849168897653;18.207622085005298;1;9.76049476186988;0.4873405999969691;0.5705682000261731;hit;LEFT;N;1.0925;245469;0;-1;-1;14:23:53
1;37;2;A;90;big;up;0.017;left;left;0.8677;144.640956880784;-10.5957;7.9976;1.7253568790774263;13.463050364896498;1;15.299184158191473;0.386552500014659;0.43689730000915006;CR;RIGHT;O;0.5082;250769;1;C;right;14:23:53
1;38;2;A;0;big;down;0.017;right;right;1.0027;121.32399607544808;10.2342;-8.1783;1.9475837780885576;13.152322166838424;1;13.06541968161833;0.5374025999917649;0.5869298999896273;hit;LEFT;O;2.0246;257670;1;C;right;14:23:53
1;39;2;A;0;small;mid;0.017;left;right;1.6852;181.54205485135554;-15.0915;-0.1356;0.16355999362664358;20.359235031243493;0;8.955749923694201;0.5047965999692678;0.5536226999829523;miss;RIGHT;O;0.7082;265361;1;I;right;14:23:53
1;40;2;A;0;small;down;0.017;right;right;1.5186;166.67756633157103;12.0416;-9.082;0.09196997895977015;16.468512415420832;1;9.931749091378233;0.536673900031019;0.5865893000154756;hit;RIGHT;N;1.1916;273931;0;-1;-1;14:23:53
1;41;2;A;90;small;mid;0.017;left;left;1.2179;253.44287494652312;-15.0915;-0.113;0.145387189714311;20.86604698161389;1;12.391802814767308;0.4204062999924645;0.45396850001998246;CR;LEFT;N;0.8573;279385;0;-1;-1;14:23:53
1;42;2;A;90;big;down;0.017;left;left;1.2177;128.46231470806916;-12.3805;-9.0594;0.3850892545099358;15.463314903381555;1;12.59810415070877;0.6034943999839015;0.6694850000203587;CR;RIGHT;O;0.4752;284005;1;C;left;14:23:53
1;43;2;A;0;small;down;0.017;right;right;1.4523;168.23493895535015;12.019;-9.1272;0.12862272350637347;17.978381636020032;1;10.391466074519297;0.420748199976515;0.503656700020656;hit;RIGHT;N;1.2065;290569;0;-1;-1;14:23:53
1;44;2;A;0;big;mid;0.017;left;right;0.8514;168.5854825273103;-13.7812;-0.3389;1.26504909292484;13.839438051050944;0;16.190696502596758;0.4039746999624185;0.45473309996305034;miss;LEFT;N;0.8427;295980;0;-1;-1;14:23:53
1;45;2;A;0;small;mid;0.017;right;right;1.2694;108.77447849166191;15.1367;0.0226;0.13856622519923242;15.317232096390246;1;11.923949527785343;0.18678940000245348;0.4866363999899477;hit;RIGHT;O;0.9414;300244;1;C;right;14:23:53
1;46;2;A;90;small;mid;0.017;left;left;1.2682;160.63136104110154;-15.2045;-0.0904;0.22356646440848196;17.302852219600187;1;11.988806402888866;0.4033246000180952;0.4530994000378996;CR;RIGHT;N;1.4093;307269;0;-1;-1;14:23:53
1;47;2;A;0;big;mid;0.017;left;right;0.9512;127.40558781569814;-13.3745;-0.1356;1.6311145659675101;13.381933054374848;0;14.061878634304103;0.3702328999643214;0.4198690999764949;miss;RIGHT;O;1.142;312494;1;C;left;14:23:53
1;48;2;A;90;big;up;0.017;left;left;0.9015;170.54069308704504;-11.7705;7.8846;1.1387235301979324;14.370637969531474;1;15.71570353607025;0.48695849999785423;0.5373408999876119;CR;LEFT;N;0.542;319620;0;-1;-1;14:23:53
1;49;3;A;0;big;down;0.017;left;right;1.1176;135.9528739727592;-10.9798;-7.9298;1.4785618787171255;13.672195169371077;0;12.118208517047186;0.6373314000084065;0.7377927000052296;miss;RIGHT;O;1.5726;335281;1;C;right;14:23:53
1;50;3;A;0;small;mid;0.017;left;right;1.5027;171.50528467012995;-15.0463;0.1581;0.16479532064128952;15.198136370398343;0;10.013701533295713;0.5363667000201531;0.5872428000438958;miss;RIGHT;O;1.6764;343110;1;C;left;14:23:53
1;51;3;A;0;small;up;0.017;left;right;1.5353;191.16410832187034;-11.9286;9.1272;0.14586306424714332;15.602587380430592;0;9.782815961291307;0.820458400005009;0.8714460000046529;miss;LEFT;N;0.5428;351026;0;-1;-1;14:23:53
1;52;3;A;90;small;down;0.017;left;left;1.502;83.70135749028049;-12.019;-9.0594;0.06239858787898773;16.066963751856562;1;10.0205035049079;0.6531506999745034;0.7032404000055976;CR;LEFT;O;1.0867;355677;1;C;left;14:23:53
1;53;3;A;0;small;down;0.017;right;right;1.5015;94.59636727975953;11.9738;-9.1498;0.15207452011382394;15.48949978786717;1;10.036545206746595;0.6703294000471942;0.7207437000470236;hit;LEFT;O;0.5584;363077;1;I;left;14:23:53
1;54;3;A;90;big;up;0.017;left;left;0.9344;140.46895627846;-13.8264;8.7431;1.8443429691041024;16.561963913936676;1;17.507467185870002;0.43717930000275373;0.4871017000405118;CR;RIGHT;N;0.5582;371428;0;-1;-1;14:23:53
1;55;3;A;90;big;down;0.017;left;left;1.6341;129.42101297724003;-12.132;-9.9631;0.9721177841104289;16.48453340400535;1;9.606629179552371;0.20307689998298883;1.2202947000041604;CR;LEFT;O;0.9404;375461;1;C;left;14:23:53
1;56;3;A;0;big;mid;0.017;right;right;1.035;117.10472907931648;13.5101;0.3841;1.5386250831409973;13.553601274715806;1;13.057971383027226;0.45391270000254735;0.5035880000214092;hit;LEFT;N;0.525;383197;0;-1;-1;14:23:53
1;57;3;A;0;small;up;0.017;left;right;1.6978;126.42694610643474;-12.0642;8.9691;0.07125055014969511;15.41185127455718;0;8.854253437924074;0.3886691000079736;0.45413809997262433;miss;RIGHT;O;1.2562;387497;1;C;left;14:23:53
1;58;3;A;0;big;up;0.017;right;right;0.885;174.468658791752;12.3579;8.3817;0.714429670947872;15.519447755556934;1;16.872975273128933;0.4863799000158906;0.5371521000051871;hit;LEFT;N;1.143;395011;0;-1;-1;14:23:53
1;59;3;A;90;big;mid;0.017;left;left;0.9022;187.1970735694862;-14.2556;-1.0844;1.315321635759175;14.971257133946802;1;15.846981734256845;0.4873910999740474;0.5367117999703623;CR;RIGHT;O;0.9416;405035;1;C;left;14:23:53
1;60;3;A;0;small;mid;0.017;left;right;2.0851;130.15879884152798;-15.1593;0.0678;0.17312266510288823;31.27111312556017;0;7.27040728560103;0.4368695999728516;0.503466899972409;miss;-1;0;0.7592;411897;0;-1;-1;14:23:53
1;61;3;A;90;small;down;0.017;left;left;2.7689;161.3496036728116;-12.019;-8.9917;0.020751443276119275;22.606887944109367;1;5.420957416770799;0.5204520999686792;1.4040920999832451;CR;RIGHT;O;0.6581;417277;1;C;left;14:23:53
1;62;3;A;0;small;down;0.017;left;right;1.9021;150.61498251888543;-11.9964;-9.082;0.08210581391938726;17.02206920552625;0;7.910507857151782;0.753197000012733;0.8043745000031777;miss;LEFT;O;1.1918;426064;1;C;left;14:23:53
1;63;3;A;90;small;up;0.017;left;left;1.2511;148.02453951282362;-11.7705;8.9465;0.23567074323295745;15.001063108782809;1;11.816901874581962;0.5369772000121884;0.5871202999842353;CR;LEFT;N;1.5412;433954;0;-1;-1;14:23:53
1;64;3;A;90;small;mid;0.017;left;left;1.4677;169.41598210531825;-14.7978;0.0678;0.21322792150375608;14.843003235202715;1;10.08225012474692;0.4875688999891281;0.5374434000113979;CR;LEFT;N;0.7907;439294;0;-1;-1;14:23:53
1;65;3;A;0;big;up;0.017;right;right;0.9185;161.12319499478855;11.7253;7.7491;1.280713292595275;14.33950199807294;1;15.302496027649868;0.11992739996640012;0.53746099997079;hit;RIGHT;O;0.7896;444204;1;C;right;14:23:53
1;66;3;A;90;small;mid;0.017;left;left;1.2353;114.73459301530436;-14.7301;-0.0452;0.2737012489797502;14.866836329529017;1;11.924503592166376;0.3864793999819085;0.4206995000131428;CR;RIGHT;N;1.0094;453830;0;-1;-1;14:23:53
1;67;3;A;90;big;mid;0.017;left;left;1.9685;159.65279689856166;-15.8145;-0.1581;0.8296865707879397;17.489630309799786;1;8.0341177416992;0.4868603000068106;0.5536463999887928;CR;LEFT;N;1.2635;458830;0;-1;-1;14:23:53
1;68;3;A;0;big;mid;0.017;right;right;1.5847;136.30756947657522;16.3793;0.3841;1.431752207189002;18.444461525417605;1;10.338781520245968;0.770310599997174;0.803842400026042;hit;LEFT;O;0.8918;469867;1;C;right;14:23:53
1;69;3;A;90;big;down;0.017;right;left;2.052;145.39891765898682;11.4994;-8.5398;0.6799899339630463;14.390206850677927;0;6.980451289714925;1.4214103000122122;1.4706738000386395;FA;LEFT;O;0.8248;477511;1;I;right;14:23:53
1;70;3;A;90;small;up;0.017;left;left;1.2857;178.64837016054332;-12.2675;8.8787;0.29373129467184667;21.428199840515514;1;11.7785916502393;0.4870668000075966;0.536021499952767;CR;RIGHT;O;0.5794;486054;1;C;left;14:23:53
1;71;3;A;0;big;down;0.017;right;right;2.103;62.109014497510216;12.2449;-9.0368;0.2476779178250285;15.451356882765868;1;7.236575075770952;1.2205842999974266;1.3038679000455886;hit;LEFT;O;1.0581;492628;1;I;right;14:23:53
1;72;3;A;90;big;up;0.017;left;left;1.5196;99.55982475382277;-10.8442;8.1332;1.4447354421573828;14.076775044567272;1;8.920187795910127;0.5878132999641821;0.9882684999611229;CR;RIGHT;O;2.7757;505663;1;C;left;14:23:53
1;73;4;A;0;small;down;0.017;left;right;1.9013;114.9270640486951;-11.906;-8.9465;0.1081356416973585;15.325999977966529;0;7.83285518859315;0.6866420999867842;0.7541656999965198;miss;RIGHT;O;0.942;525663;1;I;right;14:23:53
1;74;4;A;90;big;mid;0.017;left;left;1.5018;111.76521858093994;-13.736;-0.0452;1.2648059246575272;19.50329354667091;1;9.146521414193344;0.6205520000075921;0.8043906000093557;CR;LEFT;N;1.2747;535404;0;-1;-1;14:23:53
1;75;4;A;0;small;down;0.017;right;right;1.3186;166.39758696358768;12.019;-9.0368;0.04145427192598654;15.943524968518682;1;11.40391859516078;0.5364512000232935;0.5860806000418961;hit;LEFT;O;2.1416;540837;1;C;right;14:23:53
1;76;4;A;90;big;mid;0.017;left;left;0.9678;171.2177045259568;-15.2723;0.0678;0.28057390460921794;15.278308291338949;1;15.780198235007832;0.5206963999662548;0.5704318999778479;CR;RIGHT;N;0.4751;549187;0;-1;-1;14:23:53
1;77;4;A;0;small;mid;0.017;right;right;2.5361;150.77158803486543;14.956;-0.0678;0.0808196164820553;15.173893644842797;1;5.89734830199877;1.570320799946785;1.6374989999458194;hit;RIGHT;O;1.2245;553381;1;I;right;14:23:53
1;78;4;A;90;big;down;0.017;left;left;0.8692;106.51746454668519;-11.2961;-8.585;0.8171685989564371;14.246650614790056;1;16.32326878873124;0.2871108000399545;0.5198982000001706;CR;RIGHT;N;0.9761;562143;0;-1;-1;14:23:53
1;79;4;A;90;small;mid;0.017;left;left;1.3178;198.28803048513484;-15.2045;-0.0226;0.20573262775601822;15.273314102864061;1;11.537385340326598;0.4879930000170134;0.5380093000130728;CR;RIGHT;N;0.4587;566543;0;-1;-1;14:23:53
1;80;4;A;0;small;up;0.017;left;right;2.3351;149.246991203603;-11.9738;8.9239;0.080494855988079;17.679584342604947;0;6.395248806802212;1.3378329999977723;1.4036084999679588;miss;LEFT;O;0.6915;570986;1;I;left;14:23:53
1;81;4;A;90;small;down;0.017;left;left;2.3691;162.91675872901973;-12.019;-9.1046;0.1063308889266597;27.423662995573167;1;6.364514265884927;1.1885048000258394;1.2370625999756157;CR;LEFT;O;1.4253;579493;1;C;left;14:23:53
1;82;4;A;90;big;up;0.017;left;left;2.0525;75.16773078607437;-11.3864;8.3591;0.8872746872657108;14.350545937770596;1;6.882109675967233;0.9704765999922529;1.1872276000212878;CR;LEFT;O;1.1919;588378;1;C;right;14:23:53
1;83;4;A;0;big;down;0.017;right;right;0.9529;120.63664055852115;11.3186;-7.9976;1.2120383468521159;14.816670725004865;1;14.543840168621397;0.07051220000721514;0.5040636000339873;hit;RIGHT;O;0.6419;596771;1;C;right;14:23:53
1;84;4;A;0;big;down;0.017;right;right;2.5364;131.27795709684335;13.1712;-8.0654;1.4984046509780153;15.584160264479976;1;6.089196357137867;2.0870599999907427;2.137260499992408;hit;LEFT;O;0.5587;608020;1;C;right;14:23:53
1;85;4;A;90;big;up;0.017;left;left;0.9848;121.49687558234997;-10.912;7.7039;1.6922242352452361;13.526005361132647;1;13.56345318176794;0.5036626000073738;0.603375300008338;CR;RIGHT;N;0.8428;615727;0;-1;-1;14:23:53
1;86;4;A;90;small;mid;0.017;left;left;1.6851;182.53734871694655;-15.0012;-0.113;0.11296648817948579;15.465603599810196;1;8.90237942664828;0.2205718999612145;0.8204586000065319;CR;LEFT;O;0.6919;620313;1;C;right;14:23:53
1;87;4;A;90;small;down;0.017;left;left;1.4682;129.13193385626172;-11.8157;-8.9239;0.19942563698949456;16.576388227244202;1;10.084810039115515;0.6212520999833941;0.6702587999752723;CR;RIGHT;N;0.7256;627722;0;-1;-1;14:23:53
1;88;4;A;90;big;down;0.017;left;left;0.8682;176.54073633650236;-13.9845;-9.8728;2.167946620308249;17.272092686465697;1;19.71647311744465;0.4537669999990612;0.4867978999973275;CR;RIGHT;N;0.5251;632679;0;-1;-1;14:23:53
1;89;4;A;0;big;mid;0.017;left;right;1.7021;110.92371629706626;-13.5553;-0.2485;1.465953375871496;13.607260862957492;0;7.965028832247951;0.3365246999892406;0.5539022000157274;miss;RIGHT;O;0.608;636594;1;C;right;14:23:53
1;90;4;A;0;small;up;0.017;left;right;2.2846;122.30783452605242;-12.2223;9.1498;0.26808922706896104;16.06547878613536;0;6.6829723965250105;1.0199945999775082;1.6202020000200719;miss;RIGHT;O;1.0417;645394;1;I;left;14:23:53
1;91;4;A;0;big;mid;0.017;right;right;1.4529;152.109280613903;14.0297;0.2259;0.996255347580901;14.608767824644689;1;9.657783024737993;0.5536630999995396;1.1055277999839745;hit;RIGHT;O;0.635;654081;1;C;right;14:23:53
1;92;4;A;90;small;up;0.017;left;left;1.3012;151.15259195848517;-12.019;8.7431;0.2575562259388071;15.376598378877297;1;11.421862301924962;0.5703159999684431;0.6369744999683462;CR;LEFT;N;1.0249;661194;0;-1;-1;14:23:53
1;93;4;A;0;big;up;0.017;right;right;0.9355;120.40736876715177;11.5672;8.6754;0.5410511383012092;14.751488294004671;1;15.455616666744175;0.4374180000158958;0.4865302999969572;hit;LEFT;N;0.6252;666153;0;-1;-1;14:23:53
1;94;4;A;0;small;mid;0.017;left;right;1.4177;168.66608386615442;-15.0689;-0.2033;0.2146970174967224;15.934231588142682;0;10.629819462557046;0.7366359999869019;0.7708594999858178;miss;LEFT;O;0.8425;670470;1;I;left;14:23:53
1;95;4;A;90;small;up;0.017;right;left;2.4187;249.41980022012987;12.1771;8.9465;0.18505585892862828;48.40234712229324;0;6.247237342918437;0.48651419999077916;0.5871532000019215;FA;-1;0;0.7415;678076;0;-1;-1;14:23:53
1;96;4;A;0;big;up;0.017;right;right;1.7191;123.53845850034521;12.2449;8.8787;0.27331492358770654;16.406608066865747;1;8.798129579189036;0.04824560001725331;1.3377401999896392;hit;LEFT;O;0.6414;683980;1;C;left;14:23:53
1;97;5;A;0;small;mid;0.017;right;right;1.4693;136.91273641126205;14.8204;0.0678;0.19194186239736505;14.95147089438557;1;10.086739556784387;0.5709616999956779;0.60396259999834;hit;LEFT;O;1.9583;718897;1;C;left;14:23:53
1;98;5;A;90;small;down;0.017;left;left;1.4844;149.75300857006255;-11.8834;-9.0368;0.12223599851409407;15.497166289151455;1;10.057104693822206;0.5532092999783345;0.5876663000090048;CR;RIGHT;N;0.9931;727503;0;-1;-1;14:23:53
1;99;5;A;90;small;mid;0.017;left;left;1.7353;99.21991981973439;-15.0689;0.0452;0.08242422730683938;15.151798347690008;1;8.68382160950713;0.803736999980174;0.9041341000120156;CR;RIGHT;O;2.926;732652;1;C;left;14:23:53
1;100;5;A;0;small;up;0.017;right;right;1.5022;135.31364320534993;11.9512;8.8561;0.15193564639541307;16.409319226639433;1;9.90239290407662;0.43706820002989843;0.47055680002085865;hit;RIGHT;O;1.3084;742010;1;I;left;14:23:53
1;101;5;A;0;small;down;0.017;right;right;2.636;138.5408866919848;11.7479;-8.9917;0.25224200123752416;24.833913006940485;1;5.6123816724477145;0.519995899987407;0.620335099985823;hit;-1;0;1.0746;751561;0;-1;-1;14:23:53
1;102;5;A;0;small;mid;0.017;left;right;1.3186;170.8883120706684;-15.1819;-0.0452;0.187424328721131;18.768835524986244;0;11.51402298894272;0.04846439999528229;0.6036800000001676;miss;RIGHT;N;1.1571;758014;0;-1;-1;14:23:53
1;103;5;A;90;big;mid;0.017;left;left;1.052;143.2711494287359;-15.1819;-0.1356;0.22684969785584227;15.20817298705318;1;14.432471854410045;0.45385890000034124;0.5032988999737427;CR;LEFT;O;1.2572;763120;1;C;right;14:23:53
1;104;5;A;0;big;mid;0.017;right;right;1.1017;155.61065299561102;14.0071;-0.0226;0.9931502852579799;14.01614259035843;1;12.714254360171008;0.6869682000251487;0.7206584999803454;hit;RIGHT;N;0.9752;770864;0;-1;-1;14:23:53
1;105;5;A;90;small;down;0.017;left;left;1.8515;116.6050894973139;-12.1094;-8.9465;0.12176490730789997;15.697127187165043;1;8.131682022304442;0.12028879998251796;0.9881984999519773;CR;LEFT;N;1.8096;775570;0;-1;-1;14:23:53
1;106;5;A;0;big;mid;0.017;right;right;1.2019;98.49748355204626;14.5493;0.2937;0.5379340714702499;14.559814515954653;1;12.108167752467846;0.586589400016237;0.6540384000400081;hit;LEFT;O;1.1095;781996;1;C;left;14:23:53
1;107;5;A;90;big;down;0.017;left;left;1.1352;156.58877644479568;-13.3293;-9.3531;1.3754478132916028;16.368995561690205;1;14.344742667975007;0.2702205000096001;0.7368872000370175;CR;LEFT;O;0.8597;789860;1;C;left;14:23:53
1;108;5;A;0;small;up;0.017;right;right;1.4012;115.7431428219549;12.1771;8.9013;0.2027912470283192;17.14106176352548;1;10.765115453911518;0.5051284999935888;0.5779772999812849;hit;LEFT;N;0.5579;796593;0;-1;-1;14:23:53
1;109;5;A;90;big;up;0.017;left;left;1.0184;169.05681765848504;-12.2449;8.088;0.9443396732879836;15.072175989203673;1;14.409473285815507;0.2534523999784142;0.6372624999494292;CR;LEFT;N;4.8241;801297;0;-1;-1;14:23:53
1;110;5;A;0;big;up;0.017;right;right;1.0509;139.4380033090947;12.4483;8.5624;0.6264305960939137;16.407573222509843;1;14.37702960540404;0.5216157999821007;0.5708012999966741;hit;RIGHT;O;1.0404;809669;1;C;left;14:23:53
1;111;5;A;90;big;down;0.017;left;left;0.9349;123.22931410377336;-13.623;-9.5791;1.7232425238634048;16.769722464427645;1;17.8133593430463;0.5200977999484167;0.5697535999934189;CR;LEFT;O;1.2584;817181;1;C;left;14:23:53
1;112;5;A;0;big;down;0.017;right;right;1.0865;88.31835748777873;11.409;-8.472;0.7924679477983239;14.567150532982035;1;13.079500421024308;0.3869403999997303;0.5870068999938667;hit;LEFT;N;1.2242;823994;0;-1;-1;14:23:53
1;113;5;A;90;big;mid;0.017;left;left;1.1678;118.33988111418613;-13.0356;-0.0904;1.9664314795973115;13.088718876377985;1;11.16249714168758;0.08673870004713535;0.637060500041116;CR;RIGHT;O;0.7251;828954;1;C;right;14:23:53
1;114;5;A;0;small;down;0.017;right;right;1.2855;123.36322706996285;12.0868;-8.7657;0.24981823115608645;16.771495246336173;1;11.614824837072902;0.5546677999664098;0.6203920999541879;hit;LEFT;N;1.0091;836046;0;-1;-1;14:23:53
1;115;5;A;90;big;up;0.017;left;left;0.8849;200.36113199288667;-13.4649;8.8561;1.4719463632580414;17.238509704065592;1;18.212555235023114;0.10357560002012178;0.4706568000256084;CR;RIGHT;N;1.1759;841002;0;-1;-1;14:23:53
1;116;5;A;90;small;mid;0.017;right;left;1.8859;155.16651710036965;15.0238;0.0;0.023751551608899746;15.120486414384615;0;7.966244047832575;1.1542159999953583;1.1877148999483325;FA;LEFT;O;1.2917;845643;1;I;right;14:23:53
1;117;5;A;90;small;up;0.017;left;left;1.3177;109.48789804522265;-12.0868;8.7883;0.22876755869395907;15.390477306736289;1;11.340903220586886;0.6202751999953762;0.6703229999984615;CR;RIGHT;N;1.5752;854815;0;-1;-1;14:23:53
1;118;5;A;0;big;down;0.017;right;right;0.9856;147.31874843672952;11.3412;-8.3591;0.9191006713560166;15.633760460048133;1;14.294317427337857;0.5036216999869794;0.5704767000279389;hit;RIGHT;O;3.2416;860464;1;C;right;14:23:53
1;119;5;A;90;small;up;0.017;left;left;1.4187;134.0101078809693;-11.8157;8.8561;0.23384213273216256;14.91237037118208;1;10.408565651602768;0.720213100023102;0.7697915000026114;CR;RIGHT;O;2.1917;869590;1;C;right;14:23:53
1;120;5;A;0;big;up;0.017;right;right;0.9854;160.12443541116917;12.3805;9.7598;0.8497310005766989;15.945182364030398;1;15.998122860636446;0.10352659999625757;0.6708237000275403;hit;RIGHT;N;0.8583;878303;0;-1;-1;14:23:53
1;121;6;A;0;big;mid;0.017;right;right;1.4516;99.10165605975457;13.623;-0.0904;1.3799213273304844;13.915483067953058;1;9.384893645321675;0.7371633999864571;0.9701226000324823;hit;RIGHT;O;0.9929;899037;1;C;left;14:23:53
1;122;6;A;90;big;up;0.017;left;left;0.8349;167.8662639253203;-12.132;9.1498;0.19963722782382481;15.294161270512864;1;18.201371475718897;0.4201183000113815;0.47069360001478344;CR;LEFT;N;0.7916;906619;0;-1;-1;14:23:53
1;123;6;A;0;big;up;0.017;right;right;0.9841;132.62080682405318;11.7931;7.9524;1.0678182187029652;14.51085106796888;1;14.453651820617447;0.45365089998813346;0.5370267999824136;hit;RIGHT;O;0.6073;910997;1;C;right;14:23:53
1;124;6;A;0;small;mid;0.017;right;right;1.3031;116.277912249017;15.1819;-0.0904;0.2031076534853788;15.310949935421734;1;11.651054528115619;0.5383738999953493;0.5863362000091001;hit;LEFT;O;1.5586;917277;1;C;right;14:23:53
1;125;6;A;90;small;up;0.017;left;left;1.2679;90.53955437682886;-12.0416;8.8561;0.14978464120664378;17.232970404361602;1;11.789261078638354;0.3714674999937415;0.4383932999917306;CR;RIGHT;N;0.5916;925181;0;-1;-1;14:23:53
1;126;6;A;90;small;mid;0.017;left;left;1.9182;260.6192827386735;-14.9786;-0.0226;0.03114100823590196;31.032800854954864;1;7.808835189264196;0.7541276999982074;0.7885030999896117;CR;LEFT;O;2.5893;929687;1;C;left;14:23:53
1;127;6;A;0;small;up;0.017;right;right;1.5189;155.2960131111721;12.2449;9.0368;0.2476779178250285;15.539563488962369;1;10.01960014312594;0.5202814000076614;0.5704220000188798;hit;LEFT;N;0.7093;939037;0;-1;-1;14:23:53
1;128;6;A;90;big;mid;0.017;left;left;1.0347;168.09268618781715;-14.3234;-0.3389;0.756725464505411;14.330059867869787;1;13.846504334169131;0.5539921000017785;0.5865023000515066;CR;LEFT;O;1.276;943827;1;C;left;14:23:53
1;129;6;A;0;small;up;0.017;right;right;1.3852;118.59322192855133;11.9512;8.8787;0.13074063845495856;15.236579720205684;1;10.747895266664205;0.4537185000372119;0.5373054000083357;hit;RIGHT;O;1.0594;951330;1;C;right;14:23:53
1;130;6;A;90;big;up;0.017;left;left;1.0181;167.98841314791386;-11.3186;7.975;1.2307882595079047;14.831296295110311;1;13.600396277404204;0.5204154000384733;0.5706270000082441;CR;RIGHT;N;0.792;958980;0;-1;-1;14:23:53
1;131;6;A;90;big;down;0.017;left;left;0.8523;135.11528557204622;-12.1094;-9.5791;0.5892917960830378;15.863493847265886;1;18.116568775200328;0.10365119995549321;0.5034543999936432;CR;LEFT;N;0.707;963419;0;-1;-1;14:23:53
1;132;6;A;90;small;down;0.017;left;left;1.5344;119.35603182129896;-11.9512;-8.8561;0.15193564639541307;15.017642762322378;1;9.694561017566361;0.5367351999739185;0.5723287999862805;CR;RIGHT;O;1.2574;967620;1;C;right;14:23:53
1;133;6;A;0;big;mid;0.017;right;right;1.2353;126.86852859781811;14.1201;0.1807;0.8983025444241494;14.166037651367823;1;11.431022965983017;0.7205711000133306;0.7706593000330031;hit;LEFT;O;0.7752;975644;1;I;right;14:23:53
1;134;6;A;0;small;down;0.017;right;right;1.5355;119.23844206726632;11.8157;-8.8109;0.2640591130761727;15.150318593731436;1;9.598662240839865;0.6696907000150532;0.8367977000307292;hit;RIGHT;O;0.6918;983011;1;C;right;14:23:53
1;135;6;A;0;small;down;0.017;left;right;1.3512;108.47709668369794;-11.8834;-8.9013;0.15273446356229745;15.786022453590304;0;10.988297454281122;0.10370390000753105;0.7037341999821365;miss;RIGHT;O;0.5916;990016;1;C;left;14:23:53
1;136;6;A;90;small;mid;0.017;left;left;1.3516;164.37678953581135;-14.8882;-0.0226;0.11406089574622032;15.236585443273537;1;11.015102299218555;0.5205990000395104;0.571571100037545;CR;LEFT;N;0.9927;997046;0;-1;-1;14:23:53
1;137;6;A;90;small;up;0.017;left;left;1.2691;126.18775473676381;-12.2675;9.082;0.27980785882465586;15.65595205907334;1;12.027025115432487;0.5039190999814309;0.5704732000012882;CR;LEFT;O;1.426;1002053;1;C;right;14:23:53
1;138;6;A;90;small;down;0.017;left;left;1.2856;113.72579716090041;-11.906;-8.9691;0.09892025833214248;15.142776699564923;1;11.594881141641322;0.4529850999824703;0.5205137999728322;CR;LEFT;N;1.1097;1009819;0;-1;-1;14:23:53
1;139;6;A;0;small;mid;0.017;left;right;1.4841;146.62866185843075;-14.843;0.0;0.15698530916233366;18.007228074659416;0;10.00126856253261;0.6365407000412233;0.7036597999976948;miss;RIGHT;O;0.4743;1014886;1;C;left;14:23:53
1;140;6;A;90;big;mid;0.017;left;left;1.035;288.90510685688366;-15.9048;0.1807;0.9227177363085987;19.67478515182301;1;15.367573720350212;0.45323879999341443;0.48645639995811507;CR;RIGHT;N;1.042;1021731;0;-1;-1;14:23:53
1;141;6;A;0;big;down;0.017;right;right;1.4347;69.71025898545375;11.6801;-8.0428;1.0092441995455386;16.635085958818998;1;9.884838683438913;0.6367048000101931;0.9538118000491522;hit;LEFT;O;0.7699;1026548;1;I;right;14:23:53
1;142;6;A;90;big;down;0.017;left;left;1.2014;109.36083853687576;-11.7027;-9.2176;0.36840375288213956;15.18748891789829;1;12.400078979400327;0.5038698999560438;0.5372492999886163;CR;RIGHT;O;0.5916;1034061;1;C;left;14:23:53
1;143;6;A;0;big;down;0.017;right;right;1.2352;90.10093073386018;11.2283;-8.2009;1.1108827288673848;14.006065770217493;1;11.256601778264052;0.6367188000003807;0.7038425999926403;hit;LEFT;O;0.7086;1041194;1;I;left;14:23:53
1;144;6;A;0;big;up;0.017;right;right;0.9348;197.60340039115255;10.1664;8.9465;1.8343326770310517;13.963833542646855;1;14.486271626570755;0.08705609996104613;0.5708325999439694;hit;RIGHT;N;1.0923;1049799;0;-1;-1;14:23:53
1;145;7;A;90;small;down;0.017;left;left;1.3345;173.13055245608345;-11.906;-8.8787;0.15343550893934252;18.61355062326368;1;11.129750891370442;0.5697396000032313;0.6205309999641031;CR;LEFT;O;0.8573;1077838;1;C;left;14:23:53
1;146;7;A;90;big;down;0.017;left;left;0.902;141.6477687239522;-10.2342;-8.585;1.8138871323174584;13.429049484737387;1;14.809127609971801;0.48733059997903183;0.5368571000290103;CR;LEFT;N;0.5249;1084752;0;-1;-1;14:23:53
1;147;7;A;0;big;down;0.017;right;right;1.1846;114.34543002109707;11.0249;-8.5624;1.0687429487845992;14.245752119828772;1;11.784256468917834;0.45491470000706613;0.5204602000303566;hit;RIGHT;O;0.4905;1088931;1;C;left;14:23:53
1;148;7;A;0;small;mid;0.017;left;right;2.4847;156.5271162273422;-14.956;-0.113;0.12123639560242086;15.007568078435913;0;6.019502652917312;1.6375838000094518;1.7063239000272006;miss;RIGHT;O;0.6416;1095531;1;I;left;14:23:53
1;149;7;A;0;small;mid;0.017;left;right;1.1676;141.61314891060175;-15.0238;0.0678;0.07181758931249248;15.408972041657984;0;12.86718311302482;0.5043448999640532;0.5547499000094831;miss;RIGHT;N;0.8765;1108919;0;-1;-1;14:23:53
1;150;7;A;90;big;mid;0.017;left;left;2.0016;140.58866059028077;-13.8264;0.5196;1.2835151306490553;13.897588448445047;1;6.9125673277692306;1.4539699000306427;1.5209924000082538;CR;RIGHT;O;0.6427;1113763;1;C;right;14:23:53
1;151;7;A;90;big;up;0.017;left;left;0.8849;147.76246323461086;-11.3864;8.6754;0.6941633539043224;14.6817639499739;1;16.177245028623723;0.41993279999587685;0.4872406999929808;CR;RIGHT;O;2.5424;1122076;1;C;left;14:23:53
1;152;7;A;0;big;mid;0.017;right;right;1.6197;94.35018497829752;14.2104;-0.0226;0.7898874740635555;18.37691738982977;1;8.773278937499358;0.7369533000164665;1.1040690999943763;hit;RIGHT;O;1.142;1130820;1;C;left;14:23:53
1;153;7;A;0;small;up;0.017;right;right;1.4522;136.77282435936925;12.2223;9.195;0.2957210865857129;16.22956444806445;1;10.531889633123194;0.5537484000087716;0.6034218000131659;hit;RIGHT;N;1.1417;1138370;0;-1;-1;14:23:53
1;154;7;A;90;small;mid;0.017;left;left;1.0847;153.53022740564052;-15.1819;0.0226;0.18329394157915865;15.638663299640989;1;13.996014048658395;0.43730290001258254;0.503852800000459;CR;RIGHT;N;0.5906;1143714;0;-1;-1;14:23:53
1;155;7;A;90;big;up;0.017;left;left;0.9344;151.73817005540448;-11.2283;8.585;0.8762305170728946;14.598236872051995;1;15.127108254366346;0.48737879999680445;0.5371706999721937;CR;RIGHT;N;1.1059;1148114;0;-1;-1;14:23:53
1;156;7;A;90;big;down;0.017;right;left;1.1681;86.02079906248889;11.5898;-8.472;0.6686145929093859;14.421517976799757;0;12.28995827439044;0.4868955999845639;0.7707374999881722;FA;LEFT;O;0.5569;1152770;1;I;left;14:23:53
1;157;7;A;90;small;up;0.017;left;left;1.3012;136.47908985159444;-11.8383;9.1498;0.2204529930738389;15.351263559010253;1;11.49834370442749;0.5038652999792248;0.553817700012587;CR;RIGHT;N;1.3592;1160326;0;-1;-1;14:23:53
1;158;7;A;0;small;down;0.017;left;right;1.4521;103.1078721662687;-12.0642;-8.9917;0.06472517324138677;16.29812328523296;0;10.36161609198623;0.5714424999896437;0.7049777000211179;miss;RIGHT;O;0.7928;1165653;1;C;left;14:23:53
1;159;7;A;0;big;down;0.017;right;right;1.5349;112.41146746162815;11.1153;-7.5232;1.7215358160885696;13.718591141588787;1;8.744291025657215;0.6370743999723345;1.13735789997736;hit;RIGHT;O;0.5916;1179423;1;I;right;14:23:53
1;160;7;A;90;small;up;0.017;left;left;2.0696;59.10882752305372;-11.9738;9.082;0.0861046948839597;16.85669485984989;1;7.261506828006018;1.0705414999974892;1.155343200021889;CR;LEFT;O;1.7082;1186937;1;C;left;14:23:53
1;161;7;A;90;small;mid;0.017;left;left;2.1176;114.78631541447295;-15.0689;0.0226;0.07254338887994545;15.884132786412769;1;7.115898561706854;0.33690329996170476;1.2707427999703214;CR;LEFT;N;1.458;1195594;0;-1;-1;14:23:53
1;162;7;A;0;big;up;0.017;right;right;1.0687;106.31457935277061;12.7419;9.2402;0.7798528342924191;15.9363552223594;1;14.728285631762867;0.15372830000706017;0.6541733000194654;hit;RIGHT;O;0.624;1201914;1;C;left;14:23:53
1;163;7;A;90;small;down;0.017;left;left;1.436;97.67942828129495;-12.2223;-9.1498;0.26808922706896104;15.465834388618699;1;10.631975140270884;0.08643760002451017;0.6196715999976732;CR;RIGHT;N;0.7428;1211797;0;-1;-1;14:23:53
1;164;7;A;0;small;up;0.017;right;right;1.3853;160.6529351245848;11.8609;9.0594;0.15130582771091663;15.464507924875434;1;10.773859152776755;0.6373878999729641;0.6872435000259429;hit;LEFT;O;0.4938;1216652;1;I;left;14:23:53
1;165;7;A;0;big;up;0.017;left;right;1.2687;50.14386729407155;-10.3698;8.3139;1.768718469021875;13.745906648852733;0;10.476279695796189;0.3535456999670714;0.7703428999520838;miss;LEFT;N;0.7592;1225306;0;-1;-1;14:23:53
1;166;7;A;90;big;mid;0.017;left;left;1.2016;121.46004138382698;-14.1878;-0.4067;0.9082778998851941;14.213787362202115;1;11.812691234893409;0.08649970003170893;0.6039729000185616;CR;LEFT;O;1.2428;1230096;1;C;right;14:23:53
1;167;7;A;0;small;down;0.017;right;right;1.202;142.64772691309147;12.0416;-8.9917;0.04242147921675126;16.67288534597037;1;12.50319437963396;0.4865123999770731;0.570649599947501;hit;RIGHT;O;0.7252;1237914;1;C;left;14:23:53
1;168;7;A;0;big;mid;0.017;right;right;1.1681;145.7273954275487;13.6004;0.3841;1.4512925955885587;13.693561907060547;1;11.647986177367109;0.7364763000514358;0.7871024000342004;hit;LEFT;O;0.7254;1244748;1;C;left;14:23:53
1;169;8;A;0;small;mid;0.017;left;right;2.3349;143.70246825344162;-14.8204;-0.0226;0.18099296101061202;14.909077417996787;0;6.347297631631578;1.3051238000043668;1.35451400000602;miss;LEFT;O;0.7923;1273254;1;I;right;14:23:53
1;170;8;A;0;small;up;0.017;left;right;2.2352;128.33294159788713;-11.9738;8.9917;0.02747950782194778;17.841329632742564;0;6.69909381443189;0.6036612999741919;0.7370841999654658;miss;RIGHT;O;0.8427;1282319;1;I;right;14:23:53
1;171;8;A;90;big;down;0.017;left;left;1.101;159.77619627140498;-12.7645;-9.3531;0.8421551026143417;20.340257945623748;1;14.373451723168975;0.4037306999671273;0.4708268999820575;CR;LEFT;N;0.6914;1290737;0;-1;-1;14:23:53
1;172;8;A;0;small;down;0.017;right;right;1.5023;111.16000194015547;12.0416;-9.082;0.09196997895977015;16.389343716484525;1;10.039458030742914;0.6873144000419416;0.7706300000427291;hit;RIGHT;O;0.9907;1295187;1;C;left;14:23:53
1;173;8;A;90;small;down;0.017;left;left;1.4347;161.48822314088355;-11.9964;-9.1046;0.10468096813811663;21.841565054660293;1;10.497016895006931;0.37042880000080913;0.4200475999969058;CR;LEFT;O;1.2419;1302747;1;C;right;14:23:53
1;174;8;A;0;big;mid;0.017;right;right;0.9521;95.65028357110683;13.4649;0.5196;1.6206625986811831;13.572860942563064;1;14.152931772805715;0.37046609999379143;0.42012839997187257;hit;LEFT;O;0.6247;1310522;1;C;right;14:23:53
1;175;8;A;0;big;down;0.017;left;right;1.9181;66.70748640137474;-10.4827;-7.9072;1.8698164988897694;13.631920189854732;0;6.84558769854248;1.2205871000187472;1.5040106999804266;miss;RIGHT;O;1.0262;1317887;1;I;right;14:23:53
1;176;8;A;90;big;down;0.017;left;left;0.9515;132.6740209732983;-10.7313;-8.5398;1.3496267802966415;14.104500753465656;1;14.413486239770178;0.48631659999955446;0.5367895999806933;CR;RIGHT;N;0.7425;1326519;0;-1;-1;14:23:53
1;177;8;A;0;small;down;0.017;right;right;1.3845;107.92854393231939;12.019;-8.9691;0.036303102395645;17.37382359980485;1;10.831973742591176;0.3710284000262618;0.4536552000208758;hit;LEFT;O;0.5583;1330903;1;C;right;14:23:53
1;178;8;A;0;big;down;0.017;right;right;1.286;81.0008350931481;10.8216;-8.0428;1.5181669582526394;13.646136425214594;1;10.484581807989755;0.6718118999851868;0.7540355999954045;hit;LEFT;N;1.376;1338660;0;-1;-1;14:23:53
1;179;8;A;90;big;mid;0.017;left;left;0.9686;129.15595830818995;-13.9167;-0.113;1.0891354546110283;13.97208218459558;1;14.368795011222275;0.42086959996959195;0.47025630000280216;CR;LEFT;N;1.0073;1344064;0;-1;-1;14:23:53
1;180;8;A;90;small;up;0.017;left;left;2.685;127.40678996536045;-11.9738;9.1272;0.1298780426180326;28.870061578786036;1;5.607349925405066;1.0555011000251397;1.3385039000422694;CR;RIGHT;O;0.9241;1348687;1;C;right;14:23:53
1;181;8;A;90;small;mid;0.017;right;left;2.852;79.11082941939254;15.1367;0.0678;0.15259038426829027;18.43402490565643;0;5.307415005065898;0.5036416000220925;1.9203689000569284;FA;LEFT;O;0.6254;1357270;1;I;left;14:23:53
1;182;8;A;90;big;up;0.017;right;left;1.1512;160.1104685298959;10.6635;8.6754;1.3753853021314293;13.784834313303575;0;11.941322474633093;0.737301999994088;0.7710536000085995;FA;RIGHT;O;0.5583;1365920;1;I;right;14:23:53
1;183;8;A;90;big;mid;0.017;left;left;1.0015;208.7832841361609;-13.8264;-0.0904;1.1771041519542305;14.251704534830136;1;13.806229187364647;0.0481650999863632;0.6704462000052445;CR;LEFT;N;1.2758;1373754;0;-1;-1;14:23:53
1;184;8;A;0;small;up;0.017;right;right;2.1018;117.93958021577765;11.9964;8.9465;0.053645707104577584;15.625522277875053;1;7.12010399269744;1.2374698999919929;1.3039375999942422;hit;RIGHT;O;0.7745;1378780;1;C;left;14:23:53
1;185;8;A;0;small;mid;0.017;right;right;1.7353;139.73382061775675;14.9334;0.1356;0.1510375061408994;15.234513917413885;1;8.606240328805276;0.103181799990125;0.9533939000102691;hit;LEFT;O;1.3262;1386526;1;C;right;14:23:53
1;186;8;A;90;small;down;0.017;left;left;1.1011;150.58439303839756;-12.019;-8.8335;0.16756673892447915;15.750187969915237;1;13.54595600123194;0.43704609997803345;0.5202904000179842;CR;LEFT;N;1.109;1394753;0;-1;-1;14:23:53
1;187;8;A;90;small;up;0.017;left;left;1.5179;141.47540789482787;-12.019;8.9917;0.020751443276119275;15.583245026998167;1;9.888833630683205;0.5194932000013068;0.5703472000313923;CR;LEFT;O;3.2083;1399620;1;C;right;14:23:53
1;188;8;A;90;big;up;0.017;left;left;1.1339;191.68833226713565;-10.9346;8.3139;1.267224868346796;13.993603433448571;1;12.114455372281475;0.6039767999900505;0.6539046000107192;CR;RIGHT;N;1.3918;1409117;0;-1;-1;14:23:53
1;189;8;A;0;big;mid;0.017;right;right;0.9024;132.98733774890428;13.2616;0.2033;1.7502832375744468;13.343178309814107;1;14.697300110156693;0.22013610001886263;0.5039398000226356;hit;LEFT;O;0.6574;1414304;1;C;left;14:23:53
1;190;8;A;0;big;up;0.017;right;right;1.3681;105.51730333775143;11.3638;8.2913;0.9523459777036452;14.609474772000919;1;10.281932146281571;0.04866919998312369;0.920596599986311;hit;LEFT;O;0.624;1421621;1;C;right;14:23:53
1;191;8;A;90;small;mid;0.017;left;left;1.4342;192.9457318700574;-14.9334;0.1581;0.17160294722026156;15.042369977146178;1;10.412644249507549;0.6204320999677293;0.6701539999921806;CR;LEFT;O;1.0257;1428754;1;C;left;14:23:53
1;192;8;A;0;big;up;0.017;right;right;1.4188;90.57081349807473;11.9286;7.9976;1.0049312554771095;14.588319900579553;1;10.121973085372666;0.8369916999945417;0.9208483999827877;hit;LEFT;O;0.6597;1436536;1;C;left;14:23:53
2;1;1;B;0;small;up;0.02;right;left;2.6515;94.0133748552228;12.1771;8.8335;0.243101353713315;18.4645659602968;0;5.67366613543465;0.869936900096945;0.97046570002567;miss;LEFT;N;3.2007;5236;0;-1;-1;10:14:50
2;2;1;B;0;big;mid;0.02;left;left;1.1518;68.3563477685366;-13.9619;0.4067;1.11488814899665;14.1105473595867;1;12.1265641345035;0.519555700011551;0.620466799940914;hit;LEFT;N;1.2797;13776;0;-1;-1;10:14:50
2;3;1;B;90;big;down;0.02;left;right;1.6684;52.0177428633159;-10.9346;-8.0202;1.44745679961587;13.7468995730012;0;8.12812095404864;0.5203764999751;0.703892900026403;FA;LEFT;N;0.9659;18968;0;-1;-1;10:14:50
2;4;1;B;90;small;down;0.02;right;right;2.5017;71.2786173384884;12.1094;-9.0368;0.115408555021994;28.6952394701395;1;6.03979748452517;0.537675999919884;0.837635700008832;CR;-1;0;1.5295;24261;0;-1;-1;10:14:50
2;5;1;B;0;big;down;0.02;left;left;1.4681;46.4021882990307;-10.3698;-8.9691;1.6305160645716;13.9666246686781;1;9.33914983991181;0.636149100027978;0.786963199963793;hit;LEFT;N;1.0009;30971;0;-1;-1;10:14:50
2;6;1;B;0;small;down;0.02;left;left;1.5525;136.281512597151;-12.2223;-9.0368;0.225362223133318;16.0757791474372;1;9.79067864575677;0.66917949996423;0.753413700032979;hit;RIGHT;N;1.0116;36003;0;-1;-1;10:14:50
2;7;1;B;90;small;up;0.02;left;right;1.8346;50.7422994365362;-12.019;8.9691;0.036303102395645;15.6169413143597;0;8.17427425792262;0.636228099931031;0.869650100008585;FA;LEFT;N;0.8262;41330;0;-1;-1;10:14:50
2;8;1;B;0;small;up;0.02;right;left;2.835;64.8485817850249;12.1094;8.9465;0.1217649073079;28.6045656752463;0;5.31063902851355;0.936452600057237;1.18742850003764;miss;-1;0;1.1377;46556;0;-1;-1;10:14:50
2;9;1;B;90;big;up;0.02;left;right;1.801;55.2544122802433;-11.1153;8.3591;1.09244808127794;15.693715449175;0;7.72237842428734;0.736586899962276;1.22063999995589;FA;RIGHT;N;0.8091;53090;0;-1;-1;10:14:50
2;10;1;B;0;big;up;0.02;left;left;1.4679;59.8719292101938;-11.2961;8.2461;1.03144384531523;14.0776638276051;1;9.52763200783693;0.719581999932416;0.804240399971604;hit;RIGHT;N;0.8146;58371;0;-1;-1;10:14:50
2;11;1;B;0;small;mid;0.02;right;left;1.7014;38.9778416586837;15.1141;0;0.11411998199452;15.2324752487014;0;8.88359008800143;0.403372699976899;0.653352100052871;miss;LEFT;N;0.9725;63209;0;-1;-1;10:14:50
2;12;1;B;0;small;mid;0.02;left;left;1.8015;64.060751404941;-15.1141;-0.1356;0.177194497696006;15.215777647534;1;8.38994096500406;0.819255899987184;0.92070140002761;hit;RIGHT;N;0.7406;68551;0;-1;-1;10:14:50
2;13;1;B;0;big;mid;0.02;left;left;1.4848;52.4092328232792;-13.1938;0.1807;1.81522928465656;13.2741159370233;1;8.88646097721618;0.603165499982424;0.703035400016233;hit;RIGHT;N;0.6569;73662;0;-1;-1;10:14:50
2;14;1;B;90;small;mid;0.02;right;right;2.1186;57.3562862881133;15.1367;0.0226;0.138566225199232;15.3478288769902;1;7.14474470238083;1.22022069990635;1.35382229997776;CR;RIGHT;N;1.1649;78577;0;-1;-1;10:14:50
2;15;1;B;0;big;up;0.02;left;left;1.4671;75.0757128960977;-11.2509;8.472;0.91648119190327;15.1184580086017;1;9.59976970318295;0.519877600017935;0.804264900041744;hit;RIGHT;N;1.3438;84427;0;-1;-1;10:14:50
2;16;1;B;90;big;down;0.02;left;right;2.4514;103.800453602613;-10.8668;-8.9013;1.13748728290007;29.7706430634746;0;5.73014701533541;0.720186699996702;1.07025230000727;FA;-1;0;1.4886;89920;0;-1;-1;10:14:50
2;17;1;B;90;small;down;0.02;left;right;2.436;46.1522451069082;-11.8834;-8.9239;0.139205256941938;15.0861297196353;0;6.1006283983031;0.952994400053285;1.503940399969;FA;LEFT;N;0.8131;96442;0;-1;-1;10:14:50
2;18;1;B;0;big;down;0.02;left;left;2.7014;49.9980377221833;-10.415;-8.2461;1.75518741857673;13.5489877472744;1;4.91744165817339;0.887042399961501;1.45392270002048;hit;LEFT;N;1.9454;102366;0;-1;-1;10:14:50
2;19;1;B;90;big;up;0.02;right;right;1.4516;77.6330301672779;10.6635;8.4946;1.42887928225743;13.7449388478141;1;9.3921949397873;0.670603799982928;0.769463100004941;CR;LEFT;N;1.1333;109678;0;-1;-1;10:14:50
2;20;1;B;90;big;mid;0.02;right;right;1.7508;47.083976265319;13.2842;0;1.71584073331424;13.3172826149241;1;7.58747352287734;0.752952500013635;0.852888599969447;CR;RIGHT;N;1.7566;114828;0;-1;-1;10:14:50
2;21;1;B;0;small;down;0.02;right;left;2.6184;65.1809764514844;12.019;-9.1498;0.151003836758393;15.8046944594805;0;5.7690626122065;1.00611259997822;1.3869613999268;miss;LEFT;O;1.1245;120903;1;C;right;10:14:50
2;22;1;B;90;small;up;0.02;right;right;1.9862;61.1017540848796;12.1771;8.9465;0.185055858928628;15.6742214636108;1;7.60749565383293;0.953269300051033;1.03685320005752;CR;LEFT;N;0.7698;130298;0;-1;-1;10:14:50
2;23;1;B;90;big;mid;0.02;left;right;2.0351;66.8845741695777;-13.8264;0;1.17363015100053;13.857279146484;0;6.7938516002225;0.903831799980253;1.52064520004205;FA;LEFT;N;0.8594;135826;0;-1;-1;10:14:50
2;24;1;B;90;small;mid;0.02;right;right;1.6531;61.3910761045382;14.8882;-0.0452;0.12058647484429;15.0544085362688;1;9.00631838642981;0.837079300079495;0.903909899992868;CR;RIGHT;N;1.072;141509;0;-1;-1;10:14:50
2;25;2;B;90;big;down;0.02;left;right;2.2521;58.3548078064287;-10.415;-8.3591;1.70971500911943;15.6287826657638;0;5.92988114620592;0.803290599957108;1.63738129998092;FA;LEFT;N;1.2895;157720;0;-1;-1;10:14:50
2;26;2;B;90;big;mid;0.02;right;right;1.5852;45.6788907426523;13.239;0.4067;1.80736812707706;13.3576137681476;1;8.35544277820738;0.620411100098863;0.770252600079402;CR;RIGHT;N;1.1939;164031;0;-1;-1;10:14:50
2;27;2;B;0;big;mid;0.02;left;left;1.4676;69.6067113528926;-14.0297;0;0.970301182632893;14.2087560922245;1;9.55956302393619;0.803414199966937;0.887611599988304;hit;LEFT;N;0.9578;169604;0;-1;-1;10:14:50
2;28;2;B;0;big;down;0.02;left;left;1.7523;57.2712094054198;-11.0701;-8.3591;1.12935018632112;14.0717052149423;1;7.91638428708473;0.937253899988718;1.13704130006954;hit;RIGHT;N;0.7729;174594;0;-1;-1;10:14:50
2;29;2;B;0;big;up;0.02;left;left;1.484;65.9514071076353;-10.8442;9.3983;1.22249865439123;14.5430696617626;1;9.6699047094633;0.7368549000239;0.86972680001054;hit;RIGHT;N;1.0345;179775;0;-1;-1;10:14:50
2;30;2;B;0;small;mid;0.02;left;left;2.018;60.079356278343;-14.956;0.0452;0.0630856067583482;15.3057617176435;1;7.41139368273201;0.553563700057566;1.18706690007821;hit;RIGHT;N;0.8457;184952;0;-1;-1;10:14:50
2;31;2;B;0;big;down;0.02;left;left;1.435;69.8340458115373;-11.1379;-7.7491;1.51920024142613;14.1429266030437;1;9.4555400389479;0.586938800057396;0.769517100066878;hit;RIGHT;N;0.646;190566;0;-1;-1;10:14:50
2;32;2;B;90;small;mid;0.02;left;right;1.5516;59.3656558320898;-14.843;0;0.156985309162334;14.8997027198709;0;9.56638758411948;0.587211299920455;0.703812299994752;FA;RIGHT;N;0.582;195306;0;-1;-1;10:14:50
2;33;2;B;0;small;up;0.02;left;left;2.6343;73.7257940784502;-12.0642;9.0143;0.0657484741793743;16.9955412580632;1;5.71682447438321;0.936696300050244;1.77032310003415;hit;RIGHT;N;0.862;200002;0;-1;-1;10:14:50
2;34;2;B;90;small;down;0.02;right;right;2.4517;109.660372404613;12.1771;-9.082;0.195215710721313;33.8296575057126;1;6.19608454867635;0.489962100051343;0.603111800039187;CR;RIGHT;N;0.7209;206252;0;-1;-1;10:14:50
2;35;2;B;0;small;down;0.02;left;left;2.2693;81.518541823862;-12.0642;-9.0368;0.0740079881769473;16.0772617134589;1;6.64239475777897;0.953300200053491;1.28718580002896;hit;LEFT;N;0.8053;212000;0;-1;-1;10:14:50
2;36;2;B;0;small;down;0.02;left;left;1.7511;59.3976904409711;-11.9738;-9.1272;0.129878042618033;16.112071495566;1;8.59776905973177;0.519573000026867;0.620236700051464;hit;LEFT;N;0.9047;217855;0;-1;-1;10:14:50
2;37;2;B;90;big;mid;0.02;left;right;1.5348;78.2217123261687;-13.7134;0.1581;1.29627364546739;15.2388606376966;0;8.93575008177347;0.553906299988739;0.786598799983039;FA;LEFT;N;0.8819;223081;0;-1;-1;10:14:50
2;38;2;B;0;big;mid;0.02;left;left;1.5853;50.8820432256496;-13.1938;0.0904;1.8084684117351;13.2222244643084;1;8.32260602577047;0.536390999914147;0.654934199992567;hit;RIGHT;N;0.6389;228274;0;-1;-1;10:14:50
2;39;2;B;0;small;up;0.02;left;left;1.6184;85.9463484082122;-11.9286;8.9691;0.0777826700037865;15.7845982642675;1;9.22158284495531;0.603217800031416;0.702499000006355;hit;RIGHT;N;0.8616;233266;0;-1;-1;10:14:50
2;40;2;B;90;big;down;0.02;left;right;1.6347;38.767721301649;-10.3698;-7.8621;1.98810164078507;14.3032843952207;0;7.96038490961186;0.487099200021476;0.70397590007633;FA;LEFT;N;0.9366;238295;0;-1;-1;10:14:50
2;41;2;B;90;big;up;0.02;right;right;1.4186;88.6502979328531;11.7931;9.7372;0.765687443207149;18.4654114228844;1;10.7809306506574;0.586744099971838;0.703040699940175;CR;RIGHT;N;0.9704;243630;0;-1;-1;10:14:50
2;42;2;B;90;big;up;0.02;left;right;2.6191;139.541153448586;-10.9346;7.7491;1.64313364397239;31.332218707066;0;5.1170810299662;0.419520299998112;0.686959500075318;FA;-1;0;0.6855;248581;0;-1;-1;10:14:50
2;43;2;B;0;small;mid;0.02;right;left;2.0684;47.5635338128332;15.0238;0;0.0237515516088997;15.1397499019782;0;7.26361345773183;0.769323599990457;0.904025099938735;miss;LEFT;N;1.1005;254433;0;-1;-1;10:14:50
2;44;2;B;90;small;up;0.02;right;right;1.8847;115.921904600907;11.7931;8.9917;0.207087887647529;16.197502572645;1;7.86871580823389;0.602307799970731;0.820246599963866;CR;RIGHT;N;1.22;260274;0;-1;-1;10:14:50
2;45;2;B;0;big;up;0.02;right;left;1.385;76.8322912334559;10.9572;8.9239;1.04560208827601;14.8115257218326;0;10.2032348049649;0.686918599996716;0.836691500036977;miss;RIGHT;N;1.1282;266079;0;-1;-1;10:14:50
2;46;2;B;90;small;mid;0.02;right;right;2.1017;74.1803823397409;15.1141;0.1356;0.177194497696006;15.8827097463341;1;7.19149960811071;0.769960499950685;1.103849099949;CR;RIGHT;N;1.3163;271366;0;-1;-1;10:14:50
2;47;2;B;90;small;down;0.02;left;right;1.5514;64.62575937288;-11.9738;-9.0143;0.0298100177109106;15.9673104664152;0;9.66101533501653;0.402803399949335;0.7526878999779;FA;RIGHT;N;1.0104;277460;0;-1;-1;10:14:50
2;48;2;B;90;small;up;0.02;right;right;1.635;73.9371583726931;12.0416;8.9013;0.107114859794214;16.6181548300646;1;9.15864178294387;0.503605699981563;0.686816600034945;CR;RIGHT;N;1.2333;282580;0;-1;-1;10:14:50
2;49;3;B;0;big;mid;0.02;left;left;2.935;119.981287920303;-13.1938;-0.2033;1.81761773000011;13.5090953556713;1;4.49578718866723;2.22061970003415;2.25331469997764;hit;LEFT;O;1.132;310878;1;C;right;10:14:50
2;50;3;B;0;small;up;0.02;right;left;2.585;75.6485260712794;12.1094;8.9239;0.133250136209304;17.1471474449695;0;5.81901674120164;1.32109889993444;1.42162419995293;miss;RIGHT;O;1.3138;321479;1;C;right;10:14:50
2;51;3;B;90;big;mid;0.02;right;right;2.2683;34.32482486833;13.2616;0.3163;1.76697136201568;13.3062004841612;1;5.84815086711233;0.787041699979454;0.920260800048709;CR;LEFT;O;3.6185;330627;1;C;left;10:14:50
2;52;3;B;90;small;mid;0.02;right;right;2.1025;51.9230006996601;15.0012;0.0904;0.0903758680222674;15.0932605327795;1;7.13496773936028;0.920089900027961;1.05497469997499;CR;LEFT;N;0.7345;341823;0;-1;-1;10:14:50
2;53;3;B;0;big;down;0.02;right;left;2.7344;99.1102759124414;11.0701;-8.088;1.30247596189344;27.2653310463366;0;5.01391083738406;1.03676489996724;1.42039059998933;miss;-1;0;0.9;347457;0;-1;-1;10:14:50
2;54;3;B;90;small;down;0.02;right;right;2.3187;90.50278754317;12.1546;-8.9465;0.163559993626642;25.3885594191154;1;6.50877999458362;0.819770400063135;0.920053599984385;CR;LEFT;N;0.8158;353763;0;-1;-1;10:14:50
2;55;3;B;0;big;down;0.02;left;left;1.4024;94.0872697665709;-12.4257;-8.0654;1.02698382255515;18.770753209453;1;10.5627943256665;0.621342500089668;0.704063800047152;hit;RIGHT;N;0.7722;359564;0;-1;-1;10:14:50
2;56;3;B;0;small;down;0.02;left;left;1.968;71.3608654575641;-11.9286;-9.0594;0.0928752511633806;15.8954214293072;1;7.61123589730348;0.654230599990115;0.837171399965882;hit;RIGHT;N;0.9777;364310;0;-1;-1;10:14:50
2;57;3;B;90;small;up;0.02;right;right;1.7176;49.1256538720818;12.1094;8.9239;0.133250136209304;16.3186549042775;1;8.75784606028169;0.604141400079243;0.720406800042838;CR;LEFT;N;0.787;369938;0;-1;-1;10:14:50
2;58;3;B;0;big;up;0.02;right;left;1.318;61.4937312897979;10.5957;8.0654;1.68688258144428;13.8114166354194;0;10.1032778664543;0.57024959998671;0.70233730005566;miss;LEFT;N;0.7621;375106;0;-1;-1;10:14:50
2;59;3;B;90;big;down;0.02;right;right;1.4854;58.427672470832;10.3924;-8.3591;1.7306803667346;13.8454719723214;1;8.97876228463572;0.553433199995197;0.802918399916962;CR;LEFT;N;1.0031;379840;0;-1;-1;10:14:50
2;60;3;B;90;small;up;0.02;right;right;2.3529;51.3996615041289;11.9286;9.0143;0.0727761273578059;16.4793038969859;1;6.35463259231638;0.771900800056756;0.972040600026958;CR;LEFT;N;0.837;384906;0;-1;-1;10:14:50
2;61;3;B;0;big;up;0.02;left;left;1.1516;101.68108805416;-11.0927;8.7431;0.942932869693359;14.7671923080867;1;12.264812236647;0.637076899991371;0.686679999926127;hit;RIGHT;N;0.7095;390656;0;-1;-1;10:14:50
2;62;3;B;90;big;down;0.02;right;right;1.4176;52.559971262394;10.302;-8.3591;1.81493225104491;13.5499610960454;1;9.35854893149706;0.487480900017545;0.653021599981003;CR;RIGHT;O;3.1757;395178;1;C;left;10:14:50
2;63;3;B;90;small;mid;0.02;right;right;1.8518;71.7319244805301;14.9786;-0.0678;0.0710843794312689;15.2027161250236;1;8.0887033261184;0.687006999971345;0.870423499960452;CR;RIGHT;N;1.124;405162;0;-1;-1;10:14:50
2;64;3;B;90;big;up;0.02;right;right;2.4852;101.374809551681;12.2449;7.2973;1.72027379724042;31.8782672308778;1;5.73577876344274;0.853413200005889;1.38693419995252;CR;LEFT;O;0.8337;410816;1;C;right;10:14:50
2;65;3;B;0;big;mid;0.02;right;left;1.9187;63.2825477992941;13.6682;0;1.33177490417536;14.1234164634912;0;7.12361817103692;0.536332700052299;1.1705858000787;miss;LEFT;N;0.921;420039;0;-1;-1;10:14:50
2;66;3;B;0;small;down;0.02;left;left;2.3344;110.562526513713;-12.132;-9.082;0.155378188773044;17.0210535267398;1;6.49206179286268;1.01995360001456;1.37049429991748;hit;LEFT;O;0.9113;425448;1;I;left;10:14:50
2;67;3;B;0;small;mid;0.02;right;left;1.8515;69.7167914797632;15.1593;0.0678;0.173122665102888;15.456837992052;0;8.18759009959307;0.720115200034343;0.87059710000176;miss;LEFT;N;0.9405;435273;0;-1;-1;10:14:50
2;68;3;B;90;big;up;0.02;right;right;1.8192;68.7531266020607;11.0701;7.7265;1.57684919121093;13.8327886490853;1;7.42078475296197;0.820293199969456;0.987235700013116;CR;RIGHT;N;1.086;440641;0;-1;-1;10:14:50
2;69;3;B;90;big;mid;0.02;left;right;2.9016;50.2625385069911;-13.5553;-0.1807;1.4559966726154;14.2266273151999;0;4.67211829935268;1.70393540000077;1.85339569998905;FA;RIGHT;N;1.2066;446314;0;-1;-1;10:14:50
2;70;3;B;90;small;down;0.02;right;right;2.3022;48.7449150891944;12.0416;-9.1046;0.112584268176459;16.7365595876679;1;6.55737587460697;0.67043709999416;1.1702004999388;CR;LEFT;O;2.4878;452975;1;I;left;10:14:50
2;71;3;B;0;small;mid;0.02;right;left;2.6032;81.0356454990646;14.7526;0.1356;0.282060972471673;17.2731117547635;0;5.66734617534199;1.48702529992443;1.65503279992845;miss;RIGHT;N;1.0936;465415;0;-1;-1;10:14:50
2;72;3;B;0;small;mid;0.02;left;left;1.8345;71.1859724473609;-14.956;-0.113;0.121236395602421;17.3296932004142;1;8.15269185353079;0.637034500017762;0.970416399999522;hit;LEFT;N;1.225;477010;0;-1;-1;10:14:50
2;73;4;B;0;big;up;0.02;left;left;1.8677;84.7830147256646;-10.9572;8.2461;1.28678902866874;13.8435629203253;1;7.34225036909819;1.13659810007084;1.22032290010247;hit;LEFT;O;3.5698;522575;1;I;left;10:14:50
2;74;4;B;90;big;mid;0.02;right;right;2.4516;64.3392300569282;13.6908;0.497;1.40035524224094;15.8240200362588;1;5.5881316468438;1.45413179998286;1.55515089991968;CR;RIGHT;O;2.0474;536420;1;C;right;10:14:50
2;75;4;B;0;small;mid;0.02;right;left;2.3852;51.0716048578624;15.0463;-0.0452;0.0647251732413857;15.2858013458554;0;6.30829685356335;0.703450299915858;0.81938589992933;miss;LEFT;N;1.1112;545888;0;-1;-1;10:14:50
2;76;4;B;90;small;down;0.02;right;right;2.9685;58.7774496064874;12.0642;-9.0143;0.0657484741793743;18.8207930146345;1;5.07331425329467;0.986996100051329;1.6376555999741;CR;RIGHT;N;1.5318;551942;0;-1;-1;10:14:50
2;77;4;B;90;big;down;0.02;left;right;1.5516;73.2479707214382;-12.3805;-8.4043;0.706868126471852;15.5319008942843;0;9.64368061228037;0.636161900009029;0.753816200071014;FA;RIGHT;N;0.709;559091;0;-1;-1;10:14:50
2;78;4;B;0;small;up;0.02;left;left;2.3345;103.096042290939;-12.1094;8.9013;0.147327226265853;16.0823207950621;1;6.43766651232554;0.754200300085358;0.971414900035597;hit;RIGHT;N;0.629;563908;0;-1;-1;10:14:50
2;79;4;B;0;small;up;0.02;right;left;2.0016;83.8368109387704;12.019;9.0368;0.0414542719259865;16.0134905490095;0;7.5127129024535;0.887656199978665;0.970764299971052;miss;RIGHT;N;1.0092;569546;0;-1;-1;10:14:50
2;80;4;B;90;big;mid;0.02;right;right;2.1023;70.1396236728494;13.6908;0.7229;1.49553087574993;14.9411052923691;1;6.5212269219959;0.821710799937136;1.40357480000239;CR;LEFT;N;1.1498;575123;0;-1;-1;10:14:50
2;81;4;B;90;big;up;0.02;right;right;1.5516;64.3093315016534;10.6861;7.975;1.66643828192564;13.6240678748687;1;8.59368144829789;0.73755690001417;0.838063600007445;CR;LEFT;N;2.029;581075;0;-1;-1;10:14:50
2;82;4;B;0;big;up;0.02;right;left;2.8193;140.925779945609;10.6861;8.9917;1.31395958257376;16.354473574531;0;4.95359076471303;1.05425919999834;1.13625280000269;miss;RIGHT;O;2.893;587438;1;I;right;10:14:50
2;83;4;B;90;small;mid;0.02;right;right;2.1683;161.460862527526;14.9108;0;0.0892089863731211;17.0722439639684;1;6.87679440403856;0.870177999953739;0.936319799977355;CR;LEFT;N;1.9969;605934;0;-1;-1;10:14:50
2;84;4;B;90;small;down;0.02;right;right;1.9174;151.861259352042;12.1094;-9.1498;0.185480016786463;26.2591898877255;1;7.91570671567774;0.0476977999787778;0.886324099963531;CR;RIGHT;N;2.6675;617887;0;-1;-1;10:14:50
2;85;4;B;0;small;mid;0.02;right;left;2.5011;41.7636382307119;15.0238;-0.0904;0.0934376231193325;15.2734996468862;0;6.00687932723598;0.120143299922347;1.28647269995417;miss;LEFT;N;1.5336;630391;0;-1;-1;10:14:50
2;86;4;B;0;big;mid;0.02;right;left;1.6839;44.6261261575782;13.9845;0.3615;1.07790252090019;14.1265149107006;0;8.30747298256565;0.770215000025928;0.887974600074813;miss;RIGHT;N;1.8441;636999;0;-1;-1;10:14:50
2;87;4;B;90;big;up;0.02;right;right;1.8524;62.6052371304434;10.8442;8.6302;1.21351134214705;14.7266690669857;1;7.4818142049881;0.93785859993659;1.08720269997139;CR;LEFT;N;2.0476;643094;0;-1;-1;10:14:50
2;88;4;B;90;big;down;0.02;left;right;1.619;67.636897779915;-10.912;-7.7943;1.62404982712569;16.2977684957608;0;8.28291373957442;0.686202300013974;0.752887300099246;FA;RIGHT;N;1.4347;649782;0;-1;-1;10:14:50
2;89;4;B;0;big;down;0.02;left;left;1.6836;46.0560702541162;-10.5505;-8.2009;1.65514764567423;13.4987103465915;1;7.93720984761317;0.870140300015919;0.986864799982868;hit;LEFT;N;1.4637;655512;0;-1;-1;10:14:50
2;90;4;B;90;small;mid;0.02;right;right;1.9519;110.15802910199;14.956;0.0226;0.0494831668663841;15.9873590442928;1;7.66212701951435;0.202933799941093;0.937712699989788;CR;RIGHT;N;1.3105;666502;0;-1;-1;10:14:50
2;91;4;B;0;big;mid;0.02;right;left;1.4352;125.271569386354;13.849;-0.4293;1.22847229432428;15.3096504535115;0;9.65406374193949;0.687020499957725;0.770280899945647;miss;LEFT;N;0.7758;672530;0;-1;-1;10:14:50
2;92;4;B;0;small;down;0.02;left;left;1.668;63.1645316536604;-11.9286;-8.9013;0.121806659084009;15.2036268906946;1;8.92297418189672;0.571300399955362;0.703994299983606;hit;RIGHT;N;2.1365;682640;0;-1;-1;10:14:50
2;93;4;B;0;small;down;0.02;left;left;2.1015;64.785145791778;-11.9512;-8.8335;0.17348364014762;15.1913855597141;1;7.07176182626277;0.704305100021884;1.23747910000384;hit;LEFT;N;1.2105;689142;0;-1;-1;10:14:50
2;94;4;B;0;big;down;0.02;left;left;1.4007;56.98614516318;-10.7313;-7.8846;1.68930142271605;13.3850514557652;1;9.50699652710886;0.6372776000062;0.753836400108412;hit;LEFT;N;0.8884;695220;0;-1;-1;10:14:50
2;95;4;B;90;small;up;0.02;right;right;2.3529;50.7500766850215;12.132;8.8335;0.212441700264357;19.1373750599961;1;6.37827665499986;0.720669400063343;1.08752359997015;CR;-1;0;1.298;700186;0;-1;-1;10:14:50
2;96;4;B;90;small;up;0.02;left;right;2.0681;49.6110987495309;-12.019;8.9917;0.0207514432761193;15.8560899620709;0;7.25813501624034;0.770451699965633;0.970793799962848;FA;LEFT;N;1.7285;706414;0;-1;-1;10:14:50
2;97;5;B;0;big;up;0.02;left;left;1.5846;83.4225407337403;-10.8894;8.0654;1.45153421884643;14.0076023693956;1;8.55148181323688;0.754779599956237;1.03820910002105;hit;LEFT;N;1.027;744458;0;-1;-1;10:14:50
2;98;5;B;0;big;down;0.02;left;left;1.4524;161.252456238838;-10.8894;-8.6076;1.17788998242797;14.2269868521217;1;9.55698808728216;0.853830500040203;0.886557599995285;hit;RIGHT;N;1.1314;749843;0;-1;-1;10:14:50
2;99;5;B;90;big;up;0.02;left;right;2.0511;122.436486727709;-11.0927;9.692;1.14106609381664;20.9665541021517;0;7.18172021374776;0.653248000075109;0.855158200021833;FA;LEFT;N;1.1888;754997;0;-1;-1;10:14:50
2;100;5;B;90;small;up;0.02;right;right;2.8521;108.703220269888;12.1094;9.082;0.136712089590922;15.7839627018752;1;5.3072082807755;0.371293500065804;0.720378700061701;CR;LEFT;N;1.3571;760907;0;-1;-1;10:14:50
2;101;5;B;0;small;down;0.02;left;left;1.5846;73.9907005533549;-12.0642;-8.9465;0.0835747593082739;15.7987830566661;1;9.47835133314664;0.58653760002926;0.703526600031182;hit;LEFT;N;0.8699;767796;0;-1;-1;10:14:50
2;102;5;B;0;big;mid;0.02;left;left;1.4004;86.1268635378181;-13.3971;0.4744;1.67161980940607;13.6336801920931;1;9.57230738723068;0.60292960004881;0.753415700048208;hit;RIGHT;N;1.2221;773035;0;-1;-1;10:14:50
2;103;5;B;0;small;up;0.02;left;left;1.8521;107.599922875615;-11.8609;9.082;0.161522095265506;18.6467353476914;1;8.06575215798881;0.78639259992633;0.903449599980377;hit;RIGHT;N;1.0009;778241;0;-1;-1;10:14:50
2;104;5;B;0;small;mid;0.02;left;left;1.7021;109.732242668179;-14.9786;0;0.0214326635839086;15.1669290770992;1;8.80003011402773;0.453027799958363;0.937584599945694;hit;RIGHT;N;0.9132;783745;0;-1;-1;10:14:50
2;105;5;B;90;small;mid;0.02;left;right;1.4682;94.452998165337;-15.1141;-0.0904;0.145567247349085;15.1667393828637;0;10.2948233096333;0.435867800028063;0.553342900006101;FA;RIGHT;N;1.0355;789021;0;-1;-1;10:14:50
2;106;5;B;0;small;up;0.02;left;left;1.6178;91.2454205404167;-12.0642;9.0368;0.0740079881769473;15.6237376918332;1;9.31726645342204;0.537344599957578;0.653795499936678;hit;LEFT;N;0.9975;794097;0;-1;-1;10:14:50
2;107;5;B;90;big;up;0.02;left;right;2.0009;137.737756333287;-10.912;8.8109;1.10431910410483;30.7577083527206;0;7.00955734113607;0.603504099999554;0.703295700019225;FA;-1;0;0.813;799490;0;-1;-1;10:14:50
2;108;5;B;90;big;mid;0.02;left;right;1.9182;90.5911377798553;-13.623;0.9715;1.68515642168121;18.0001047976048;0;7.12004745496022;0.771475899964571;1.02069689997006;FA;LEFT;N;0.7937;804971;0;-1;-1;10:14:50
2;109;5;B;90;small;mid;0.02;right;right;2.0692;58.6659072515392;14.956;-0.0226;0.0494831668663841;17.9193805806182;1;7.22777596284949;0.603689100011252;0.720917600090615;CR;RIGHT;O;1.7037;810435;1;C;left;10:14:50
2;110;5;B;90;small;up;0.02;right;right;1.5684;72.7289645505591;11.9738;8.9691;0.0405267343323291;15.4423257018899;1;9.53891607087363;0.636992100044154;0.73845279996749;CR;RIGHT;N;1.1102;821595;0;-1;-1;10:14:50
2;111;5;B;90;big;down;0.02;right;right;2.1521;85.4236170777916;10.9346;-8.9013;1.06998280339817;27.7258516390063;1;6.55167810100118;0.603930299985223;0.987002199981362;CR;LEFT;N;0.9095;827050;0;-1;-1;10:14:50
2;112;5;B;0;big;down;0.02;left;left;1.3183;58.1490784010589;-11.6123;-7.5232;1.52685924642875;14.3422259042504;1;10.495719597828;0.636375400004908;0.737348500057124;hit;LEFT;N;0.9749;832795;0;-1;-1;10:14:50
2;113;5;B;0;small;mid;0.02;left;left;1.9359;48.957946722651;-14.843;0.0226;0.15860261857372;15.0154678506017;1;7.66738204847958;0.786405800026841;0.954280200065114;hit;RIGHT;N;1.0717;837741;0;-1;-1;10:14:50
2;114;5;B;90;big;mid;0.02;right;right;1.8683;46.9340262930128;13.736;0.0452;1.26480592465753;14.0068520105266;1;7.35213162153022;0.970817600027658;1.08761410007719;CR;LEFT;N;0.8906;843434;0;-1;-1;10:14:50
2;115;5;B;90;big;down;0.02;left;right;1.4347;54.270992522944;-10.4376;-8.2009;1.75491971124516;13.3717830346976;0;9.25217915146966;0.637565099983476;0.837087300023995;FA;LEFT;N;1.0435;848872;0;-1;-1;10:14:50
2;116;5;B;0;small;down;0.02;left;left;1.6688;112.936979622766;-11.8383;-8.9917;0.161950566030195;16.5151379035838;1;8.90823804809859;0.653971399995498;0.78713919990696;hit;LEFT;N;1.4163;853921;0;-1;-1;10:14:50
2;117;5;B;90;small;down;0.02;left;right;2.0685;60.9507293541142;-12.019;-8.9917;0.0207514432761193;15.9739577471342;0;7.25647673579898;0.520242500002496;1.05471930000931;FA;LEFT;N;1.548;859665;0;-1;-1;10:14:50
2;118;5;B;90;small;down;0.02;left;right;2.0682;57.2070567353716;-11.8834;-9.0594;0.130831060689409;16.5872680614339;0;7.22496342699109;0.887736000004224;1.05564789997879;FA;LEFT;N;1.1662;865963;0;-1;-1;10:14:50
2;119;5;B;0;big;up;0.02;left;left;1.5173;61.7191299474551;-10.8894;8.6528;1.16361729912502;14.6360506558721;1;9.16685068157808;0.686364000081085;0.835547200054862;hit;LEFT;N;0.8585;871755;0;-1;-1;10:14:50
2;120;5;B;0;big;mid;0.02;left;left;1.5014;75.1833151552905;-13.5779;-0.0904;1.42501162003914;13.8416162911721;1;9.04393584048469;0.686724800034426;0.786887399968691;hit;LEFT;N;0.8974;876918;0;-1;-1;10:14:50
2;121;6;B;0;big;mid;0.02;left;left;1.5852;53.9426065863733;-12.9905;-0.4293;2.05487204097775;13.0927468802304;1;8.19907203752065;0.703505499986932;0.820716300047934;hit;RIGHT;N;1.1498;893433;0;-1;-1;10:14:50
2;122;6;B;0;small;up;0.02;left;left;1.684;77.1821586031093;-11.9512;8.9691;0.0577570484757742;16.2101672045559;1;8.87304073416139;0.602383199962787;0.739271200029179;hit;RIGHT;N;0.918;898954;0;-1;-1;10:14:50
2;123;6;B;0;small;down;0.02;left;left;1.7186;72.1070101238057;-12.0416;-9.0143;0.0439669842577994;18.1637414359638;1;8.75239212362471;0.637584700016305;0.703530599945225;hit;LEFT;N;1.5289;904337;0;-1;-1;10:14:50
2;124;6;B;90;big;down;0.02;left;right;2.2173;53.3335205982868;-11.522;-7.9976;1.11054111742131;15.57647893145;0;6.32555861287351;0.603501599980518;0.736871100030839;FA;LEFT;N;1.0179;910265;0;-1;-1;10:14:50
2;125;6;B;0;big;mid;0.02;left;left;1.4845;45.89759500121;-13.4875;-0.3615;1.55510613479197;13.5383659480991;1;9.08880269440588;0.586499999975786;0.704218499944545;hit;LEFT;N;0.9177;916256;0;-1;-1;10:14:50
2;126;6;B;90;big;mid;0.02;right;right;1.5362;54.8790716902162;13.8264;0.3841;1.23487420106246;14.0429229134202;1;9.0038291624248;0.736750500043854;0.870292600011453;CR;RIGHT;N;1.257;921320;0;-1;-1;10:14:50
2;127;6;B;90;big;down;0.02;right;right;2.3859;56.5672547498018;10.4601;-8.1783;1.74535704440892;15.7596098378602;1;5.56520500945997;0.603695300058462;1.55532720009796;CR;RIGHT;O;1.3538;926672;1;C;left;10:14:50
2;128;6;B;90;small;mid;0.02;right;right;1.918;70.7817920993939;14.9108;-0.1807;0.201554102144215;15.9361916979042;1;7.77479611506777;0.63705579994712;0.937173599959351;CR;LEFT;N;1.2859;935915;0;-1;-1;10:14:50
2;129;6;B;90;small;down;0.02;right;right;2.2356;66.2089580809071;12.0868;-8.9239;0.115430582364545;15.6335495143355;1;6.72036102806498;0.887385499896482;1.03775949997362;CR;LEFT;N;1.199;941710;0;-1;-1;10:14:50
2;130;6;B;0;small;mid;0.02;left;left;1.8018;40.8537843044533;-15.0915;-0.113;0.145387189714311;15.2098707933885;1;8.37617346301562;0.637288499972783;0.753169400035404;hit;RIGHT;N;0.7576;947792;0;-1;-1;10:14:50
2;131;6;B;90;small;mid;0.02;left;right;1.9366;49.3397156275919;-14.9334;-0.0226;0.0703435275174576;14.9752419929056;0;7.71101832304592;0.754231399972923;0.871913800016046;FA;LEFT;N;1.4677;953110;0;-1;-1;10:14:50
2;132;6;B;0;small;up;0.02;left;left;1.6505;101.174918614208;-12.0642;8.9917;0.0647251732413868;16.322417269491;1;9.11625322609081;0.669752500019968;0.803512700018473;hit;LEFT;N;1.6689;959081;0;-1;-1;10:14:50
2;133;6;B;0;big;down;0.02;left;left;2.0515;77.0170616961132;-11.0024;-8.8109;1.01540300272769;14.608713058906;1;6.87074328070551;0.68717699998524;0.886510199983604;hit;LEFT;N;0.8864;965146;0;-1;-1;10:14:50
2;134;6;B;90;small;up;0.02;right;right;1.6195;139.642856628004;12.0642;8.9691;0.0712505501496951;18.4365746772056;1;9.28243293582964;0.604358899989165;0.654183799983002;CR;LEFT;N;1.0549;970861;0;-1;-1;10:14:50
2;135;6;B;0;big;down;0.02;left;left;1.2838;92.3042769902797;-10.8442;-8.2009;1.40511618770453;14.3076941007064;1;10.5906122770511;0.552766899927519;0.686171500012279;hit;RIGHT;N;1.0848;976307;0;-1;-1;10:14:50
2;136;6;B;90;big;up;0.02;left;right;1.4181;76.1978520881757;-10.7764;7.8169;1.70203082828329;13.9764131435176;0;9.38801227518804;0.620107099995948;0.838158300030045;FA;RIGHT;N;1.7187;981251;0;-1;-1;10:14:50
2;137;6;B;0;big;up;0.02;left;left;1.9006;54.0184614199801;-10.415;7.9976;1.87540403003511;13.8041306807275;1;6.9088931780498;0.437581500038505;0.604749000049196;hit;RIGHT;N;0.9318;986950;0;-1;-1;10:14:50
2;138;6;B;0;small;mid;0.02;left;left;1.7515;44.5358807527306;-14.9786;-0.0678;0.0710843794312689;14.9987223339518;1;8.55181324255425;0.55415580002591;0.687433899962343;hit;LEFT;N;1.7776;992465;0;-1;-1;10:14:50
2;139;6;B;90;big;up;0.02;right;right;2.6353;51.1831181011801;11.6349;7.7265;1.32479144429366;15.0739599361504;1;5.29995708268269;0.736863899976015;1.45294969994575;CR;RIGHT;N;1.1329;998667;0;-1;-1;10:14:50
2;140;6;B;0;big;up;0.02;left;left;2.4681;45.6533792892622;-11.0249;7.6135;1.69499145265884;14.0109206980565;1;5.42868043198711;0.536728100036271;1.3373252999736;hit;RIGHT;N;1.3283;1005240;0;-1;-1;10:14:50
2;141;6;B;0;small;down;0.02;left;left;1.8344;58.9592330471108;-11.9738;-8.9691;0.0405267343323291;16.171118944752;1;8.15560930273548;0.502861500019208;0.652611600002274;hit;LEFT;N;1.4923;1011808;0;-1;-1;10:14:50
2;142;6;B;90;small;down;0.02;left;right;2.7016;48.7603206853183;-11.9964;-8.9239;0.0762021524554709;17.7881861457865;0;5.53443805328099;0.770153099903837;1.60304779990111;FA;RIGHT;N;1.6471;1017795;0;-1;-1;10:14:50
2;143;6;B;90;small;up;0.02;right;right;1.5511;63.2809905869645;12.132;9.082;0.155378188773044;16.0724227947242;1;9.77015158511007;0.620032300008461;0.837853000033647;CR;RIGHT;N;1.3998;1024914;0;-1;-1;10:14:50
2;144;6;B;90;big;mid;0.02;right;right;2.3363;170.678265828957;13.5553;-0.3841;1.49491372959707;30.4113484574378;1;5.80425697825109;0.720939000020735;0.937393700005487;CR;-1;0;0.6541;1030536;0;-1;-1;10:14:50
2;145;7;B;90;big;down;0.02;left;right;1.9509;61.7732010521978;-11.2509;-9.1046;0.756400418052525;15.3523436109758;0;7.41890589432025;1.05437560006976;1.30563140008599;FA;LEFT;N;0.9403;1056892;0;-1;-1;10:14:50
2;146;7;B;90;small;up;0.02;right;right;1.5685;73.930170998424;12.0416;9.0143;0.0439669842577994;15.6547917428713;1;9.59018450990055;0.553161699906923;0.653136699926108;CR;RIGHT;N;0.9527;1062454;0;-1;-1;10:14:50
2;147;7;B;0;small;up;0.02;right;left;2.5195;80.0727465685492;12.0868;8.9465;0.101957408739734;23.6581615536239;0;5.9685271162313;0.871306600049138;1.65349519997835;miss;RIGHT;O;2.0624;1067650;1;C;right;10:14:50
2;148;7;B;90;small;up;0.02;right;right;1.8188;86.1744190782696;11.9964;9.1046;0.104680968138117;16.4326519283511;1;8.28022819078217;0.869374600006267;0.987317699939013;CR;LEFT;N;1.0689;1079952;0;-1;-1;10:14:50
2;149;7;B;90;big;up;0.02;right;right;1.8518;83.2908366030192;11.0249;8.2461;1.2325021561548;14.4241838530981;1;7.43492528807561;0.653185599949211;1.20363819994964;CR;RIGHT;N;2.0041;1085608;0;-1;-1;10:14:50
2;150;7;B;90;big;mid;0.02;right;right;2.0527;130.808024653027;13.736;0.3841;1.32105979231007;16.9001730461518;1;6.69414975069174;0.585846900008619;1.45369980006944;CR;RIGHT;O;1.1407;1092153;1;I;left;10:14:50
2;151;7;B;0;big;mid;0.02;left;left;1.8518;95.2690293290162;-14.1878;0.4518;0.929386569823919;16.5129975008458;1;7.66574018407873;0.804783000028692;0.904497399926186;hit;LEFT;N;1.1495;1106052;0;-1;-1;10:14:50
2;152;7;B;0;small;mid;0.02;right;left;1.7845;69.6748148777889;15.1141;-0.0452;0.122739494837724;15.4895996867108;0;8.46948419058213;0.886843299958855;1.00340909999795;miss;LEFT;N;0.562;1111737;0;-1;-1;10:14:50
2;153;7;B;90;small;down;0.02;left;right;1.7343;67.50839464063;-11.9286;-8.9691;0.0777826700037865;18.2205104083043;0;8.60519951842987;0.538211699924432;0.653728100005537;FA;RIGHT;N;0.9937;1116644;0;-1;-1;10:14:50
2;154;7;B;90;small;mid;0.02;left;right;1.9521;50.3908657073609;-14.8882;0.0678;0.130740638454959;15.0858680014242;0;7.62676554993694;0.720050700008869;1.02016810001805;FA;RIGHT;N;0.9734;1121928;0;-1;-1;10:14:50
2;155;7;B;90;small;mid;0.02;left;right;2.0009;90.1843836899069;-14.956;-0.0678;0.0808196164820553;16.102191219464;0;7.47468434755041;0.803236500010826;0.969522600062191;FA;RIGHT;N;0.9246;1127517;0;-1;-1;10:14:50
2;156;7;B;0;small;down;0.02;left;left;1.5513;102.068161500806;-11.906;-9.0143;0.0950338806362206;20.4515516848647;1;9.62615774177113;0.453458299976774;0.637971099931747;hit;RIGHT;N;1.1464;1133200;0;-1;-1;10:14:50
2;157;7;B;90;small;down;0.02;left;right;1.552;101.775060728707;-11.9738;-8.9691;0.0405267343323291;15.2105443650155;0;9.63970813253738;0.520357500063255;0.670107800047845;FA;RIGHT;N;1.0058;1138568;0;-1;-1;10:14:50
2;158;7;B;0;big;down;0.02;left;left;1.3355;68.451577483705;-10.4601;-7.9976;1.83737433775514;13.6029497645435;1;9.85957720258271;0.503003899939358;0.653580899932422;hit;LEFT;N;1.3349;1143898;0;-1;-1;10:14:50
2;159;7;B;0;big;up;0.02;left;left;1.584;75.4934662184558;-10.5505;8.3365;1.59413221371791;14.8968705167331;1;8.48923515486085;0.620481799938716;0.820643299957737;hit;RIGHT;N;0.9937;1149345;0;-1;-1;10:14:50
2;160;7;B;90;big;mid;0.02;right;right;1.2177;127.428806468537;13.7134;0.1807;1.29922338872807;15.263708330066;1;11.2630101423902;0.521825299947523;0.604882700019516;CR;RIGHT;N;2.0422;1154701;0;-1;-1;10:14:50
2;161;7;B;90;big;up;0.02;left;right;2.635;66.161276091435;-12.1546;7.9298;1.08127296875561;22.8588985397456;0;5.50764372599656;0.652480299933814;1.15386989992112;FA;-1;0;0.756;1160741;0;-1;-1;10:14:50
2;162;7;B;0;small;up;0.02;left;left;1.6511;77.7386704192115;-12.1546;9.0594;0.165588165471112;15.4599380187022;1;9.18120849427805;0.720983400009573;0.887531799962744;hit;LEFT;N;0.7983;1166698;0;-1;-1;10:14:50
2;163;7;B;0;big;down;0.02;left;left;2.1351;74.7484976354035;-10.9346;-9.1498;1.07589996031031;15.7780489568948;1;6.67790220125692;0.786324799992144;1.15361279994249;hit;RIGHT;N;1.0188;1171695;0;-1;-1;10:14:50
2;164;7;B;0;big;up;0.02;right;left;1.7851;62.8508498011808;11.6801;8.088;0.966495695732993;14.6471769277722;0;7.95887632127698;0.921001999988221;1.22065030003432;miss;LEFT;N;1.2804;1177415;0;-1;-1;10:14:50
2;165;7;B;0;big;mid;0.02;left;left;1.3678;55.8645024660368;-13.6456;-0.113;1.35906956618003;13.6950738997197;1;9.9769627380222;0.602980799973011;0.719480199972168;hit;LEFT;N;0.6444;1183029;0;-1;-1;10:14:50
2;166;7;B;90;big;down;0.02;right;right;1.3355;62.0336471671467;10.6183;-8.8109;1.39458648076124;14.4478028662967;1;10.3314494530957;0.604635800002143;0.70283720002044;CR;LEFT;N;0.5919;1187810;0;-1;-1;10:14:50
2;167;7;B;0;small;mid;0.02;right;left;1.6518;74.433200615376;15.2045;0.0226;0.205732627756018;15.7577945124096;0;9.20456037827683;0.720362399937585;0.821455499972217;miss;RIGHT;N;0.9363;1192411;0;-1;-1;10:14:50
2;168;7;B;0;small;down;0.02;left;left;1.3845;69.9704575235205;-11.8834;-8.9691;0.12058647484429;15.8989615668319;1;10.7532502544982;0.48632769996766;0.619849000009708;hit;LEFT;N;1.1174;1197672;0;-1;-1;10:14:50
2;169;8;B;0;small;up;0.02;left;left;2.2507;67.75282322167;-12.132;8.9691;0.135538847792709;16.4166596366988;1;6.70341587178079;0.803333799936809;0.986960999900475;hit;RIGHT;N;1.106;1221547;0;-1;-1;10:14:50
2;170;8;B;0;small;up;0.02;right;left;1.7182;118.585746480256;12.019;8.9013;0.10052180702633;15.6019985684666;0;8.70475968472013;0.637503400095738;0.720570900011808;miss;LEFT;N;1.048;1227679;0;-1;-1;10:14:50
2;171;8;B;90;small;mid;0.02;right;right;2.0344;115.971008879305;15.0463;0;0.0463436592053039;15.4303417982756;1;7.39582642235912;1.16961390001234;1.2706011000555;CR;RIGHT;N;1.003;1233097;0;-1;-1;10:14:50
2;172;8;B;90;big;down;0.02;right;right;1.5512;84.1980732906963;10.189;-8.3365;1.92868421073067;14.9966515273788;1;8.48686654908762;0.519284900045022;0.820379800046794;CR;LEFT;N;0.8927;1238702;0;-1;-1;10:14:50
2;173;8;B;0;big;up;0.02;right;left;1.9187;92.5303022262181;11.4994;8.4043;0.778150991317839;26.7527181932618;0;7.42340756963594;0.586832400062121;0.836840100004338;miss;RIGHT;N;1.1181;1243707;0;-1;-1;10:14:50
2;174;8;B;0;big;down;0.02;left;left;1.284;84.8248571778876;-11.522;-8.0428;1.0699338402127;16.6953116782269;1;10.943642488912;0.504270300036296;0.618840400013141;hit;LEFT;N;0.8887;1249541;0;-1;-1;10:14:50
2;175;8;B;90;big;down;0.02;left;right;1.5021;54.3845155412069;-10.4376;-8.1106;1.79786821969461;13.3515484360484;0;8.80012600866076;0.753229199908674;0.919466299936175;FA;RIGHT;N;0.6304;1254313;0;-1;-1;10:14:50
2;176;8;B;0;small;down;0.02;left;left;1.4687;113.254459201873;-11.8834;-8.9239;0.139205256941938;19.2485757174674;1;10.1188503983556;0.553489999962039;0.653083499986678;hit;RIGHT;N;0.7258;1259120;0;-1;-1;10:14:50
2;177;8;B;90;small;mid;0.02;left;right;1.585;91.7713908824825;-14.9334;-0.1807;0.192623003245699;15.3471568764594;0;9.42212425050844;0.453510499908589;0.669529299950227;FA;LEFT;N;0.8311;1263981;0;-1;-1;10:14:50
2;178;8;B;90;big;up;0.02;right;right;1.7847;60.0048670820771;10.7538;8.7657;1.26798483176184;13.981425730516;1;7.77370569338614;0.968859900021926;1.12016390007921;CR;RIGHT;O;0.9727;1269180;1;C;right;10:14:50
2;179;8;B;90;small;up;0.02;left;right;2.0839;68.9442874392084;-11.9964;9.0143;0.0146963721451947;16.9245218404777;0;7.20062734385011;0.770362100098282;1.20286740001757;FA;LEFT;N;0.9914;1278435;0;-1;-1;10:14:50
2;180;8;B;0;big;mid;0.02;right;left;1.4347;71.3806331982034;13.5779;-0.4744;1.49919295977762;14.7765424465506;0;9.46967843933557;0.570102300029248;0.653936899965629;miss;RIGHT;N;1.7262;1284196;0;-1;-1;10:14:50
2;181;8;B;0;small;mid;0.02;left;left;1.7353;49.911054750013;-14.8882;-0.0226;0.11406089574622;14.9127062082222;1;8.57967621727003;0.619886600063182;0.869328400003724;hit;RIGHT;N;1.036;1290023;0;-1;-1;10:14:50
2;182;8;B;0;small;mid;0.02;right;left;2.5359;77.763598521823;15.1367;-0.1581;0.209045350096683;16.3830491208309;0;5.96939410972608;0.936775300069712;1.63730549998581;miss;LEFT;O;0.8052;1295572;1;C;right;10:14:50
2;183;8;B;90;small;down;0.02;left;right;1.6856;94.2896348728387;-11.9738;-9.1272;0.129878042618033;15.4975309598105;0;8.93187853778918;0.51962709997315;0.83609570004046;FA;LEFT;N;0.7695;1304743;0;-1;-1;10:14:50
2;184;8;B;90;big;mid;0.02;right;right;1.7018;70.4183656032986;13.4423;0.0678;1.5591697779502;13.5515223742607;1;7.89876475438926;0.720866899937391;0.821104299975559;CR;RIGHT;N;1.0687;1309879;0;-1;-1;10:14:50
2;185;8;B;0;small;down;0.02;left;left;1.8849;77.5204412921653;-12.132;-9.0594;0.144728876823936;18.7439138934263;1;8.03312615854543;0.586760300095193;0.719875100068748;hit;RIGHT;N;0.7231;1315252;0;-1;-1;10:14:50
2;186;8;B;90;small;down;0.02;right;right;1.751;61.31098671572;12.0868;-9.0143;0.0879399491721545;15.3535359658466;1;8.61118358041855;0.720266000018455;0.82057400001213;CR;LEFT;O;1.2916;1320635;1;C;left;10:14:50
2;187;8;B;0;big;down;0.02;left;left;1.4681;85.7800773449602;-10.7313;-8.5398;1.34962678029664;14.2969302845481;1;9.3414470011946;0.788147599902004;0.8870868999511;hit;RIGHT;N;0.6128;1329935;0;-1;-1;10:14:50
2;188;8;B;0;big;up;0.02;left;left;2.6695;91.7403205786776;-12.1771;7.7265;1.28576083348507;33.3596698234428;1;5.40234999870563;0.736868200008757;1.35383459995501;hit;-1;0;0.7343;1334577;0;-1;-1;10:14:50
2;189;8;B;90;big;mid;0.02;right;right;1.3192;60.0598887074111;13.3971;-0.1356;1.60860170344046;13.6220403675811;1;10.1557260853462;0.519625899964012;0.619365599937737;CR;LEFT;N;0.857;1340650;0;-1;-1;10:14:50
2;190;8;B;90;small;up;0.02;right;right;1.8342;42.1032680671982;12.0868;8.9917;0.0871775249397045;15.5097750938973;1;8.21332108683958;0.72101780003868;0.870338200009428;CR;LEFT;N;0.9094;1345406;0;-1;-1;10:14:50
2;191;8;B;0;big;mid;0.02;left;left;2.3184;68.0070216195331;-13.8264;-0.0904;1.17710415195423;20.2409375138229;1;5.963962236772;0.655077500035986;0.820310700102709;hit;LEFT;N;0.6409;1350920;0;-1;-1;10:14:50
2;192;8;B;90;big;up;0.02;right;right;1.2524;68.4656458812946;10.799;7.9976;1.56433010066616;13.4869258594418;1;10.7295602471333;0.603953799931332;0.669972399948165;CR;LEFT;N;0.7824;1356444;0;-1;-1;10:14:50
3;1;1;A;0;small;mid;0.033;right;right;1.4524;73.650791548853;15.0238;0.0226;0.0327801697597456;16.07301701473;1;10.3442622261716;0.454765899921767;0.520834299968556;hit;RIGHT;N;0.9582;0;0;-1;-1;12:00:07
3;2;1;A;90;small;up;0.033;left;left;1.3843;82.409527350193;-11.8834;8.9465;0.128254424532545;15.2613424599389;1;10.7455104054347;0.436838199966587;0.636551300063729;CR;RIGHT;N;1.0904;5071;0;-1;-1;12:00:07
3;3;1;A;0;big;up;0.033;right;right;1.8515;52.9907774301975;10.4827;8.4494;1.61406054543343;13.8339174833765;1;7.2718668439037;0.453696499927901;0.787347399978898;hit;RIGHT;O;1.3417;10187;1;C;left;12:00:07
3;4;1;A;0;big;down;0.033;right;right;1.0693;103.107501978375;11.8609;-7.7491;1.25862205439283;14.3525908355946;1;13.2491985661504;0.554472899995744;0.621297199977562;hit;RIGHT;N;0.874;18495;0;-1;-1;12:00:07
3;5;1;A;90;big;mid;0.033;right;left;2.2519;49.0283032560053;13.3745;0.7681;1.79782825988374;13.4896165265071;0;5.94896433428478;1.420042200014;1.52050560002681;FA;RIGHT;O;1.6758;23181;1;I;left;12:00:07
3;6;1;A;0;big;down;0.033;right;right;1.0518;77.883182758494;10.7087;-7.6813;1.84566723201718;13.5361346223228;1;12.5297670913433;0.47003899991978;0.52036510000471;hit;LEFT;N;0.5928;33086;0;-1;-1;12:00:07
3;7;1;A;0;small;down;0.033;right;right;2.5354;58.379093060197;12.2223;-9.1272;0.256151283340284;17.0441024171535;1;6.01643615424758;0.591041799983941;0.805040700011887;hit;RIGHT;N;0.8093;37310;0;-1;-1;12:00:07
3;8;1;A;90;small;mid;0.033;left;left;1.5847;67.4596756468953;-14.9334;0.1356;0.151037506140899;15.2693634365884;1;9.42359111474111;0.703561199945398;0.787077700020745;CR;RIGHT;N;0.6749;43210;0;-1;-1;12:00:07
3;9;1;A;90;small;up;0.033;right;left;1.5022;73.09679147133;11.9512;8.9691;0.0577570484757742;15.2956915156062;0;9.94694533647028;0.487318999948911;0.586417799931951;FA;LEFT;N;0.8913;48198;0;-1;-1;12:00:07
3;10;1;A;90;big;up;0.033;right;left;2.3685;98.6359939934019;10.8668;8.3139;1.32471619079263;34.6505586421752;0;5.77670456536995;0.553440500050783;0.703641899977811;FA;-1;0;0.7741;53145;0;-1;-1;12:00:07
3;11;1;A;0;small;mid;0.033;right;right;1.3353;97.2671031034447;15.0012;0.0226;0.0226218398028459;15.2175742085337;1;11.2342730305453;0.436258099973202;0.503712099976838;hit;LEFT;N;1.1072;58921;0;-1;-1;12:00:07
3;12;1;A;0;small;up;0.033;right;right;1.5858;107.068338730193;11.8157;9.0594;0.193673042960321;15.6487629244762;1;9.38907825301948;0.453669700073078;0.569518000003882;hit;RIGHT;N;0.9917;64004;0;-1;-1;12:00:07
3;13;1;A;90;small;down;0.033;left;left;1.468;49.3639992031196;-11.9964;-8.8787;0.121354852762161;15.1503769335953;1;10.1663498713143;0.403287700028159;0.537504100007936;CR;LEFT;N;0.8082;69331;0;-1;-1;12:00:07
3;14;1;A;90;big;up;0.033;left;left;1.2348;89.1316675287355;-10.4827;8.5398;1.58551345025247;13.9894052629481;1;10.9500828519338;0.620334299979731;0.687022899976;CR;LEFT;O;1.107;74145;1;C;right;12:00:07
3;15;1;A;90;small;mid;0.033;left;left;1.1838;114.392487258033;-15.0689;-0.0904;0.113659989243795;15.1901224129284;1;12.7291638162638;0.453361300053075;0.536976200062782;CR;LEFT;N;0.7423;81794;0;-1;-1;12:00:07
3;16;1;A;0;small;up;0.033;right;right;1.3516;83.9708956721683;11.8383;8.9465;0.17036249053066;16.3625285982033;1;10.9783626124933;0.470288999960758;0.653595500043593;hit;LEFT;N;0.7085;86386;0;-1;-1;12:00:07
3;17;1;A;90;big;down;0.033;left;left;1.3851;65.8043415531371;-10.302;-8.1558;1.89630087988839;13.3129382948255;1;9.48662593664627;0.486847399966791;0.587422999902628;CR;RIGHT;N;0.776;91106;0;-1;-1;12:00:07
3;18;1;A;0;big;up;0.033;right;right;0.9861;163.892566536956;11.3412;9.1498;0.675580096318035;15.1114157486296;1;14.7779965465397;0.436966000008397;0.569755799951963;hit;RIGHT;N;0.875;95936;0;-1;-1;12:00:07
3;19;1;A;0;big;mid;0.033;right;right;1.135;76.0574596999385;14.346;1.4685;1.60754014680055;14.4969080424772;1;12.705705192675;0.436756799928844;0.520139400032349;hit;LEFT;N;0.7256;100453;0;-1;-1;12:00:07
3;20;1;A;0;big;mid;0.033;right;right;0.9685;124.859884476004;13.5553;0.6552;1.58635106287834;13.6322124479684;1;14.012018830978;0.502563700079918;0.553464199998416;hit;RIGHT;N;0.7419;104878;0;-1;-1;12:00:07
3;21;1;A;90;small;down;0.033;left;left;1.6681;85.6241545490218;-11.9286;-8.9917;0.0718529812005825;16.0847453654403;1;8.95492515995859;0.520029900013469;0.670140400063246;CR;RIGHT;O;0.9235;109237;1;C;left;12:00:07
3;22;1;A;0;small;down;0.033;right;right;1.3191;80.1205336125384;11.9964;-8.9465;0.0536457071045776;15.7599601264601;1;11.3451722810435;0.420217199949548;0.487075399956666;hit;LEFT;N;2.0251;117504;0;-1;-1;12:00:07
3;23;1;A;90;big;mid;0.033;left;left;1.5177;74.5128720874978;-12.9679;-0.1356;2.0366462212863;13.7846996221664;1;8.54500621997712;0.336058199987747;0.737029800075106;CR;LEFT;N;1.8404;123593;0;-1;-1;12:00:07
3;24;1;A;90;big;down;0.033;right;left;2.3864;72.2385471907262;10.5957;-8.1106;1.66227390415562;19.8622570687304;0;5.5914261784566;0.486557899974287;1.78721890004817;FA;RIGHT;O;1.2741;129494;1;I;right;12:00:07
3;25;2;A;0;small;up;0.033;right;right;1.4184;112.139768587274;12.132;9.0594;0.144728876823936;17.1553619743151;1;10.674643602461;0.536866200040095;0.602625500061549;hit;LEFT;N;0.6083;174005;0;-1;-1;12:00:07
3;26;2;A;0;big;mid;0.033;right;right;2.0347;86.0625693182248;13.7134;0.0678;1.28837464695151;13.7974542364396;1;6.73997916738319;0.537035099929199;0.586332599981688;hit;RIGHT;O;0.9738;178781;1;C;right;12:00:07
3;27;2;A;0;big;mid;0.033;right;right;1.7521;123.844044763944;14.3234;1.22;1.39503719590138;15.0971691557471;1;8.20435905395187;0.369366399943829;0.736668500001542;hit;RIGHT;N;1.1915;187315;0;-1;-1;12:00:07
3;28;2;A;0;big;down;0.033;right;right;1.1684;104.44536582782;10.8442;-8.6076;1.22058591536433;13.9339013927456;1;11.8498577532206;0.586697399965487;0.670285600004718;hit;RIGHT;N;0.7585;192920;0;-1;-1;12:00:07
3;29;2;A;90;big;up;0.033;left;left;1.2178;97.278718484385;-10.2794;8.5624;1.77536464313789;13.7400692243962;1;10.9853819580822;0.620121699990705;0.689139899914153;CR;LEFT;N;1.9592;197393;0;-1;-1;12:00:07
3;30;2;A;0;big;up;0.033;right;right;1.5021;99.8458454112999;10.6183;9.1498;1.38980648280235;14.8360961621172;1;9.33154211167564;0.570609400048852;0.603022100054659;hit;LEFT;O;1.0927;203253;1;C;left;12:00:07
3;31;2;A;0;big;down;0.033;left;right;1.7018;62.0254571063959;-10.6861;-8.9013;1.31763568406719;14.0526349110592;0;8.17233808186397;0.887261600000784;1.03815010003746;miss;LEFT;N;5.6913;212060;0;-1;-1;12:00:07
3;32;2;A;90;small;down;0.033;left;left;1.4847;64.3685055365091;-11.9512;-9.1046;0.115430582364545;16.2879376317889;1;10.119504401819;0.569412300013937;0.704097799956799;CR;LEFT;N;1.5739;221995;0;-1;-1;12:00:07
3;33;2;A;90;small;down;0.033;left;left;1.5508;103.893158279172;-12.0642;-9.2402;0.248600816040546;18.4648009534321;1;9.79900106103915;0.570334900054149;0.836036100052297;CR;LEFT;N;1.9405;227578;0;-1;-1;12:00:07
3;34;2;A;90;small;mid;0.033;left;left;2.5852;55.0228978536757;-15.2045;-0.0226;0.205732627756018;15.9397314276065;1;5.88127188040835;1.45308839995414;1.56954959989525;CR;RIGHT;O;1.3904;233797;1;C;right;12:00:07
3;35;2;A;0;small;up;0.033;right;right;1.8512;73.2638047426714;12.1094;8.8787;0.163327373853488;19.2891533521059;1;8.11133429849915;0.686683800071478;0.820370199973695;hit;LEFT;N;0.7573;243187;0;-1;-1;12:00:07
3;36;2;A;90;small;up;0.033;left;left;2.4517;82.2273970871596;-11.8157;9.1498;0.237524361942042;15.382840194294;1;6.09541878805576;1.55294949992094;1.78656159993261;CR;LEFT;O;1.5259;248547;1;C;right;12:00:07
3;37;2;A;0;big;up;0.033;right;right;1.2678;86.6971429194923;10.7538;9.9631;1.574962160048;15.1388327979486;1;11.5635927059972;0.587600600090809;0.687822800013237;hit;RIGHT;N;0.9261;259046;0;-1;-1;12:00:07
3;38;2;A;0;small;mid;0.033;left;right;1.6181;50.3439495200612;-14.9786;0.0678;0.0710843794312689;15.0676444754592;0;9.25722397123121;0.437193099991418;0.70402359997388;miss;LEFT;N;1.0595;263996;0;-1;-1;12:00:07
3;39;2;A;90;small;mid;0.033;left;left;2.0509;59.4579476021037;-14.9108;-0.1581;0.181570939873229;14.9977593729498;1;7.27074597729379;0.887013399973512;1.03744290000759;CR;LEFT;N;0.8406;269320;0;-1;-1;12:00:07
3;40;2;A;90;big;down;0.033;left;left;1.9344;47.7990667825762;-10.189;-8.1106;2.01758914087102;13.3712467770841;1;6.73221902695158;0.602699300041422;0.853461800026707;CR;LEFT;O;1.4249;274854;1;C;right;12:00:07
3;41;2;A;0;small;down;0.033;right;right;2.1181;77.867878619667;12.1997;-9.1498;0.249672627572943;16.31466364981;1;7.19955975864031;0.520326599944383;0.570574300014414;hit;RIGHT;O;0.8749;283794;1;C;right;12:00:07
3;42;2;A;0;small;mid;0.033;left;right;2.302;52.5058071453542;-14.8204;0;0.179577416758738;14.9746776266994;0;6.43815205418524;1.01969310001004;1.22078550001606;miss;LEFT;O;1.6582;292164;1;C;left;12:00:07
3;43;2;A;90;big;mid;0.033;left;left;1.4008;52.4922072393658;-13.0808;-0.1356;1.92395084749507;13.1530996199977;1;9.33882819311731;0.602961199940182;0.786220600013621;CR;RIGHT;N;0.7091;303170;0;-1;-1;12:00:07
3;44;2;A;90;big;up;0.033;left;left;1.3184;73.0586889534539;-10.912;8.8787;1.09475307052826;14.5333373382361;1;10.6701494190818;0.636169000063092;0.703590600052848;CR;LEFT;N;0.9593;307843;0;-1;-1;12:00:07
3;45;2;A;90;small;up;0.033;left;left;1.868;116.654088117498;-12.0416;8.7431;0.260200247925972;15.7358571667412;1;7.96638101761612;0.636617400101386;0.703849200042896;CR;RIGHT;N;0.8428;312677;0;-1;-1;12:00:07
3;46;2;A;0;small;down;0.033;left;right;2.7861;49.933153682154;-11.8157;-8.9465;0.191941862397365;15.6326512415438;0;5.31954353143502;0.871029300033115;1.68839240004309;miss;RIGHT;O;1.7594;318163;1;I;left;12:00:07
3;47;2;A;90;big;down;0.033;left;left;1.7348;33.3034884629964;-10.6861;-8.3365;1.47196086143039;13.968672076813;1;7.81261511911017;0.637299399939366;0.803019899991341;CR;RIGHT;N;0.8918;328378;0;-1;-1;12:00:07
3;48;2;A;90;big;mid;0.033;right;left;2.6022;120.280568619214;13.8941;0.6778;1.29702570616483;18.260105439693;0;5.34566015466737;1.12047480000183;1.85397629998624;FA;LEFT;O;0.8907;333545;1;I;left;12:00:07
3;49;3;A;0;small;mid;0.033;left;right;1.9688;48.1012912978537;-15.0915;0.0226;0.094274891235603;15.1686610530706;0;7.66546245602102;0.986799100064673;1.12027499999385;miss;LEFT;O;1.5263;355143;1;C;right;12:00:07
3;50;3;A;0;small;down;0.033;left;right;2.9179;45.7011647021556;-11.9738;-9.0594;0.0649467837647581;16.380396782197;0;5.14583825554468;0.586974199977703;1.12015219999012;miss;RIGHT;N;0.5761;364380;0;-1;-1;12:00:07
3;51;3;A;0;big;down;0.033;right;right;1.4353;57.6447714344154;12.629;-8.1783;1.03476876464304;15.095119890965;1;10.4829633813993;0.652808099985123;0.836894599953666;hit;LEFT;O;0.8754;370553;1;C;right;12:00:07
3;52;3;A;90;big;mid;0.033;left;left;1.5011;69.9031543017557;-13.3971;-0.0226;1.60303940185944;13.4809608884008;1;8.92476802535297;0.754466800019145;0.887538900016807;CR;LEFT;N;2.6586;378953;0;-1;-1;12:00:07
3;53;3;A;0;big;mid;0.033;right;right;1.5019;43.5901766666657;14.3912;1.2652;1.40402838525737;14.5237765494387;1;9.61890317269605;0.635876999935135;0.770575899980031;hit;LEFT;N;1.1075;385678;0;-1;-1;12:00:07
3;54;3;A;90;small;up;0.033;left;left;2.1182;98.1272376504303;-12.019;8.9465;0.0567980170459355;15.8354125595921;1;7.07366228114117;0.670384799945168;0.91974439995829;CR;RIGHT;N;1.7917;390920;0;-1;-1;12:00:07
3;55;3;A;90;big;up;0.033;left;left;1.9174;71.1270044668;-10.0987;8.7431;1.91859895820545;13.659645505163;1;6.96643900893778;1.20304309995845;1.33769249997567;CR;RIGHT;N;0.7074;397581;0;-1;-1;12:00:07
3;56;3;A;0;big;up;0.033;right;right;1.7856;105.120072686419;11.3186;8.3591;0.935426154635592;15.3769907252408;1;7.88006032183049;0.536953500006348;1.32081579999067;hit;LEFT;O;0.5575;402931;1;C;left;12:00:07
3;57;3;A;90;big;down;0.033;left;left;1.535;57.0611460362515;-10.2794;-8.2461;1.87850198042311;13.3457185864064;1;8.58506219111073;0.753549700020812;0.855791099951603;CR;RIGHT;N;0.6753;410657;0;-1;-1;12:00:07
3;58;3;A;90;big;mid;0.033;left;left;1.6692;59.8192029690693;-13.3745;-0.0678;1.62688470320392;13.54858756106;1;8.01243643550323;0.770189299946651;0.920348599902354;CR;RIGHT;N;0.608;415520;0;-1;-1;12:00:07
3;59;3;A;90;small;mid;0.033;right;left;2.686;61.7996507503888;15.0689;-0.0678;0.0966735221007649;16.7139531711529;0;5.61019022116821;0.937564899912104;1.52177400002256;FA;RIGHT;O;1.2094;420343;1;I;left;12:00:07
3;60;3;A;0;small;down;0.033;right;right;1.4861;113.108831488039;11.906;-8.9239;0.120922384831743;15.1693616697541;1;10.0123565014099;0.637105299974792;0.686894500046037;hit;RIGHT;N;1.0426;431205;0;-1;-1;12:00:07
3;61;3;A;90;small;mid;0.033;left;left;1.8184;113.579237853903;-15.0463;-0.113;0.122097575281924;15.2369394486708;1;8.27472834602137;0.702754400088452;0.870185100007802;CR;RIGHT;N;0.7241;436386;0;-1;-1;12:00:07
3;62;3;A;0;small;mid;0.033;left;right;1.9849;38.2443452027999;-15.1141;-0.1581;0.195020853364858;15.3100389960636;0;7.61507024575791;0.902131199953146;1.08660190005321;miss;RIGHT;N;0.857;441660;0;-1;-1;12:00:07
3;63;3;A;90;big;down;0.033;left;left;1.5017;70.0277422019833;-10.8894;-8.2009;1.36819089854732;13.9835063307386;1;9.07758396754685;0.603751600021496;0.887167299981229;CR;RIGHT;N;1.041;447011;0;-1;-1;12:00:07
3;64;3;A;90;small;down;0.033;left;left;2.4181;53.0270418589938;-12.0416;-9.1724;0.177342263946032;16.6751662327883;1;6.26000998410251;0.720183199970052;1.0545764999697;CR;RIGHT;N;1.2071;452281;0;-1;-1;12:00:07
3;65;3;A;90;small;up;0.033;left;left;1.8847;142.827783724228;-12.0642;8.9917;0.0647251732413868;15.8937364868765;1;7.98344835619255;1.03750999993645;1.10382900002878;CR;RIGHT;O;1.6919;458537;1;C;left;12:00:07
3;66;3;A;0;big;down;0.033;left;right;1.3523;64.8722726713815;-11.2057;-8.6528;0.866890651233982;14.7775368653861;0;10.4695828023438;0.621755799977109;0.738646299927495;miss;RIGHT;N;0.7594;473185;0;-1;-1;12:00:07
3;67;3;A;90;small;down;0.033;left;left;2.7348;47.7956121846995;-12.0868;-9.1046;0.135924818912899;16.0295568049153;1;5.53314207118436;1.23732569999993;1.50408750004135;CR;LEFT;O;0.925;478096;1;C;left;12:00:07
3;68;3;A;0;small;up;0.033;right;right;2.2021;117.103766533724;12.1546;8.8561;0.211168975030198;16.4004543695523;1;6.82933646459863;1.43626240000594;1.45368969999254;hit;LEFT;N;1.4752;489353;0;-1;-1;12:00:07
3;69;3;A;0;small;up;0.033;left;right;2.6529;86.1857121702212;-12.0868;9.1724;0.193004190465336;16.177905472604;0;5.71944429621825;1.40377620002255;1.60389540006872;miss;LEFT;O;0.9253;495595;1;I;right;12:00:07
3;70;3;A;90;big;up;0.033;left;left;1.968;134.735160873384;-11.2509;6.8454;2.28110948339696;13.8709012572;1;6.69201627895943;1.05436319997534;1.43674010003451;CR;LEFT;O;1.6419;505871;1;C;left;12:00:07
3;71;3;A;0;big;up;0.033;right;right;2.3523;63.7091267566891;10.6861;8.2461;1.51484532557714;13.6509121621435;1;5.7380305288024;0.754061000072397;1.8371636000229;hit;RIGHT;O;1.1069;516029;1;C;left;12:00:07
3;72;3;A;0;big;mid;0.033;right;right;1.8015;81.2847469773212;13.849;-0.0904;1.15458002346046;16.9403627734705;1;7.68773871074906;0.788361600018106;1.22005110001191;hit;RIGHT;N;1.0095;525098;0;-1;-1;12:00:07
3;73;4;A;0;big;up;0.033;left;right;1.3847;79.8943266834671;-11.1153;8.4494;1.0420035318912;15.0248792732891;0;10.083266877686;0.53662719996646;0.920300300000235;miss;RIGHT;N;0.5741;550954;0;-1;-1;12:00:07
3;74;4;A;0;small;down;0.033;right;right;2.2363;115.014502587743;12.1546;-9.082;0.174972495849382;18.9426079230878;1;6.78468690794323;1.17059750005137;1.28740840009414;hit;RIGHT;N;1.0574;555565;0;-1;-1;12:00:07
3;75;4;A;0;big;mid;0.033;right;right;1.3696;54.6508660695172;13.7134;0.5422;1.39617617675907;13.7787168807478;1;10.0207344084584;0.621670799911954;0.704871299909428;hit;RIGHT;N;0.7407;561378;0;-1;-1;12:00:07
3;76;4;A;90;big;mid;0.033;left;left;1.4343;42.8892264946707;-13.5779;-0.8811;1.67296596568672;13.8077358628111;1;9.48652686016033;0.5525371999247;0.68624239997007;CR;LEFT;N;1.0253;566121;0;-1;-1;12:00:07
3;77;4;A;0;small;up;0.033;left;right;2.0841;61.2460312738497;-11.906;8.7657;0.252402758357222;15.2568479715006;0;7.09395748381374;0.852606699918397;1.33737049996853;miss;LEFT;O;1.0403;571128;1;I;right;12:00:07
3;78;4;A;90;big;up;0.033;left;left;1.8194;84.4063272338224;-10.7313;7.7943;1.75028323757445;13.7153193882454;1;7.29001451015705;0.936985800042748;1.26986400003079;CR;RIGHT;O;0.7595;579381;1;C;left;12:00:07
3;79;4;A;0;big;mid;0.033;left;right;1.6846;56.941572494389;-13.3068;0.2937;1.71853107930283;13.4016861082019;0;7.90094789029815;0.652538700029254;0.919921900029294;miss;RIGHT;O;1.1595;587580;1;C;right;12:00:07
3;80;4;A;90;small;mid;0.033;left;left;2.018;104.081566995745;-15.0689;-0.0226;0.0725433888799455;16.0139909678148;1;7.46723576000766;0.0481554999714717;1.18558439996559;CR;LEFT;O;0.9193;597144;1;C;right;12:00:07
3;81;4;A;0;big;down;0.033;left;right;1.6362;45.211647183244;-11.0927;-9.3305;0.965611316782873;14.7407867474258;0;8.85876738282476;0.720026900060475;0.953794599976391;miss;RIGHT;O;0.9083;611943;1;I;right;12:00:07
3;82;4;A;90;big;up;0.033;left;left;1.5688;59.6583162965284;-10.8668;7.5232;1.86149272819455;13.6168454000448;1;8.42499054186413;0.671509799896739;1.10394469997846;CR;RIGHT;N;0.8418;620071;0;-1;-1;12:00:07
3;83;4;A;0;small;down;0.033;left;right;2.7365;88.2191764518125;-11.7931;-8.9465;0.213730637842645;25.0266641214375;0;5.40933860653782;0.687005000072531;1.20329279999714;miss;RIGHT;O;1.0083;625137;1;I;right;12:00:07
3;84;4;A;0;small;up;0.033;left;right;2.5347;62.361250603169;-11.9738;8.7883;0.213283375832055;15.0600933456009;0;5.859877622094;1.0697084000567;1.18676930002403;miss;RIGHT;O;1.0929;633771;1;C;right;12:00:07
3;85;4;A;90;big;down;0.033;left;left;2.2348;40.1496486995692;-10.799;-9.3757;1.2583736034252;17.3512635603078;1;6.39935423181381;1.00343679997604;1.53656000003684;CR;LEFT;O;1.0593;642877;1;C;right;12:00:07
3;86;4;A;90;small;mid;0.033;left;left;2.8685;53.7429201940109;-15.0012;-0.0452;0.0451990886302828;15.2265368147231;1;5.22956139734058;1.38742660009302;1.47006020008121;CR;LEFT;O;1.0927;652036;1;I;right;12:00:07
