"subject_id","trial","block","condition","stim1","size","position","gabor.contrast","response","expected_response","rt_gabor","max_speed","x_pos","y_pos","center_dist","total_dist","accuracy_gabor","avr_speed","move_start_time","OOZ_time","SDT","pressed_conf","conf","rt_conf","trial_start_time_rel2exp","exp_start_date"
1,1,1,"A",0,"big","up",0.043,"right","right",2.45,47.9237316794418,10.6183,8.088,1.65556981886966,13.511984436827,1,5.44797261400821,1.72210679999989,1.80295430000024,"hit","TR",3,1.8538,0,NA
1,2,1,"A",90,"small","mid",0.043,"left","left",1.867,55.5766623466678,-14.8882,0.0452,0.12058647484429,14.9028962132934,1,7.97432507918306,0.969371099999989,1.06854829999975,"CR","BR",4,1.191,6479,NA
1,3,1,"A",0,"big","down",0.043,"right","right",1.4504,81.9885649817863,10.5505,-8.088,1.71254180202939,13.3888377583781,1,9.16581692981788,0.668707099999665,0.755796099999316,"hit","TR",4,1.2913,11680,NA
1,4,1,"A",0,"small","down",0.043,"right","right",2.6004,45.2854997860372,11.9286,-8.9691,0.0777826700037865,15.1345532011793,1,5.73930740092367,1.50276630000008,1.63918389999981,"hit","BL",3,1.143,16562,NA
1,5,1,"A",0,"small","up",0.043,"right","right",2.5672,70.0592197304979,11.9964,8.9239,0.0762021524554709,16.129212621394,1,5.82396514586748,1.30448150000029,1.40412329999981,"hit","BR",2,2.4253,22547,NA
1,6,1,"A",0,"small","mid",0.043,"right","right",1.6501,59.2555144790501,15.0463,-0.0904,0.101558790652988,15.1473742708993,1,9.11848696355369,0.605313400000341,0.686457800000426,"hit","BR",3,1.1483,29780,NA
1,7,1,"A",90,"small","mid",0.043,"right","left",2.3827,86.2689307938678,14.9786,-0.0904,0.0928752511633814,17.3143097278395,0,6.28647368351048,0.588871099999778,1.07136899999932,"FA","TL",3,1.3934,34814,NA
1,8,1,"A",0,"small","up",0.043,"right","right",2.3168,48.0396335471366,11.9738,8.9917,0.0274795078219478,17.9700692844633,1,6.4631662481122,0.754958999999872,0.887443200000234,"hit","TR",2,1.6272,40930,NA
1,9,1,"A",0,"big","mid",0.043,"right","right",1.6161,46.6308369880131,13.0808,-0.3841,1.95722224209869,13.096900785393,1,8.09753935161365,0.689423499999975,0.839563399999861,"hit","TL",2,2.478,47113,NA
1,10,1,"A",90,"big","up",0.043,"left","left",1.3669,85.5686768677412,-11.2057,7.8169,1.42503830043682,13.7914096939496,1,9.99515146277367,0.735867100000178,0.804940800000622,"CR","BR",3,2.5409,53546,NA
1,11,1,"A",0,"small","mid",0.043,"right","right",1.4499,123.278241952611,15.0012,-0.113,0.112966488179486,15.3820803742969,1,10.3467618099546,0.405410699999265,0.668957899999441,"hit","BL",3,1.691,64845,NA
1,12,1,"A",0,"small","down",0.043,"right","right",1.6835,69.3655963556324,12.019,-9.2176,0.218408012133714,15.4256979691676,1,8.99698405939923,0.705911999999444,0.788121499999761,"hit","BL",3,1.0631,70129,NA
1,13,1,"A",0,"big","up",0.043,"left","right",2.1162,47.1889225101167,-12.4708,7.7039,1.37896562097202,14.9003304828486,0,6.92687892677973,1.28907179999987,1.4711398999998,"miss","TR",1,1.6115,75213,NA
1,14,1,"A",90,"big","down",0.043,"left","left",2.8991,102.273188544504,-10.6635,-9.5339,1.43920679240704,28.4665228701937,1,4.93389856600782,0.837769900000239,0.988399500000014,"CR","-1",0,1.1811,81080,NA
1,15,1,"A",90,"small","down",0.043,"left","left",2.2169,46.0873103603595,-12.0642,-9.0594,0.0874774795154575,16.8762187794963,1,6.80546927041445,0.921669499999552,1.19102190000012,"CR","BL",3,1.2087,87496,NA
1,16,1,"A",0,"big","mid",0.043,"left","right",2.0505,108.135542304407,-13.5779,0.0452,1.42286094799837,17.9105294376485,0,6.62184253715623,1.13725710000017,1.25455239999974,"miss","BL",2,1.2234,93262,NA
1,17,1,"A",90,"big","mid",0.043,"left","left",1.4828,47.3373901967817,-13.6456,-0.1807,1.36637323430204,13.6723666095025,1,9.20313858020905,0.768557299999884,0.887679399999797,"CR","TL",2,1.7577,98678,NA
1,18,1,"A",90,"big","down",0.043,"left","left",2.2663,48.7056385841697,-10.7538,-8.4494,1.36235603638122,14.0735301648112,1,6.03452894314481,0.669318099999145,1.52156669999931,"CR","BL",1,1.7944,104162,NA
1,19,1,"A",90,"small","down",0.043,"left","left",2.6836,70.43027337696,-11.8383,-9.0594,0.172310612583063,15.7648590914526,1,5.55478398200507,1.60301290000007,1.82208029999947,"CR","TL",2,0.99,110463,NA
1,20,1,"A",90,"big","mid",0.043,"left","left",2.3823,41.4986190841817,-13.3293,-0.1356,1.6761466884688,13.3862682870033,1,5.59549933005328,0.987705599999572,1.20580460000019,"CR","BR",3,1.6137,116279,NA
1,21,1,"A",90,"small","up",0.043,"right","left",2.3837,120.242415737524,12.019,8.9691,0.036303102395645,17.0909328425854,0,6.29128898314125,1.60464169999977,1.62285040000006,"FA","TL",1,1.142,122411,NA
1,22,1,"A",90,"big","up",0.043,"left","left",2.3165,87.6866826714914,-11.2509,7.2973,1.86025572909878,13.7753583463082,1,5.78895865563441,1.10508260000006,1.75460629999998,"CR","BL",1,1.144,128179,NA
1,23,1,"A",90,"small","up",0.043,"right","left",2.95,72.8297065042941,11.9512,9.0143,0.0508143445191863,16.3513598008439,0,5.07445820237018,1.23786899999959,2.02144679999947,"FA","TL",2,2.1577,133880,NA
1,24,1,"A",0,"big","down",0.043,"right","right",1.4014,71.7058190615353,10.8216,-7.365,2.0153701824827,13.1951814729304,1,9.34082636413387,0.821454699999776,0.901939299999867,"hit","BR",3,1.1764,141330,NA
1,25,2,"A",0,"small","up",0.043,"left","right",2.4005,83.9000690844984,-12.1094,8.9465,0.1217649073079,16.2870705195542,0,6.2720580045124,0.938164799999868,1.65425479999976,"miss","BR",1,1.8067,161361,NA
1,26,2,"A",90,"big","down",0.043,"left","left",1.5001,102.604034943816,-10.0083,-8.5398,2.04416804248357,13.4454407821464,1,8.77030391845285,0.688742299999831,1.03914499999973,"CR","BL",3,1.5774,173061,NA
1,27,2,"A",90,"small","down",0.043,"left","left",2.2322,68.5806221246408,-11.906,-9.0143,0.0950338806362206,15.3626109420108,1,6.69004698297348,0.622610800000075,1.52124099999946,"CR","BL",2,1.1607,178277,NA
1,28,2,"A",0,"big","down",0.043,"right","right",1.7672,79.9434572117358,11.3638,-9.5791,0.860241367760698,17.94019794178,1,8.41013975774128,0.554865399999471,1.10573279999971,"hit","TR",3,1.2567,183912,NA
1,29,2,"A",0,"big","down",0.043,"left","right",1.7009,95.8461360231314,-10.5731,-8.5398,1.49926454293116,14.8795678670226,0,7.99077365710971,0.702803599999243,1.20616849999988,"miss","TL",1,1.193,189078,NA
1,30,2,"A",0,"small","down",0.043,"left","right",2.6836,59.4978288485352,-11.9964,-9.0368,0.037017614878776,16.0531934177912,0,5.59678627184289,0.989204600000448,1.6363192000008,"miss","TL",2,1.494,194212,NA
1,31,2,"A",90,"big","mid",0.043,"left","left",2.0831,63.4854013501625,-13.5779,-0.2711,1.44775334326309,14.3967294930025,1,6.51932965335145,0.651597600000059,1.35452580000037,"CR","TL",2,0.9097,200628,NA
1,32,2,"A",90,"small","down",0.043,"right","left",2.2329,52.835019361497,12.0416,-8.9239,0.0867403042958828,15.9089263563254,0,6.71217210254837,0.851857399999972,1.45464979999997,"FA","BR",1,1.2233,205761,NA
1,33,2,"A",90,"small","mid",0.043,"left","left",2.3003,91.4224089315353,-15.0012,-0.1356,0.135557604116215,17.1900396837327,1,6.52177906864159,0.773228600000039,1.6392807000002,"CR","TR",1,1.1931,211561,NA
1,34,2,"A",90,"small","up",0.043,"left","left",2.3994,37.8078838600305,-12.0868,8.9917,0.0871775249397045,15.4142650790687,1,6.27847071285903,1.40180610000061,1.53512660000069,"CR","TL",2,1.5557,217395,NA
1,35,2,"A",0,"big","up",0.043,"right","right",1.6163,102.891031145945,13.0356,7.5684,1.76696554125045,15.9472496198726,1,9.32578215681903,0.854485800000475,1.05482290000054,"hit","TL",2,1.0604,223494,NA
1,36,2,"A",90,"big","up",0.043,"right","left",2.2504,45.1222364521276,10.7313,7.4554,1.99888138482057,13.6206382278299,0,5.80642304294253,0.755829100000483,1.48582160000024,"FA","BL",1,1.023,228411,NA
1,37,2,"A",0,"small","up",0.043,"left","right",2.5513,84.6251295821209,-11.8834,8.9013,0.152734463562297,16.2484889680371,0,5.81951069290551,0.922586300000148,1.68912319999981,"miss","TL",3,2.9081,233827,NA
1,38,2,"A",0,"big","mid",0.043,"right","right",1.5505,76.5454921274388,13.5553,0,1.44473544215738,13.5582872988136,1,8.7423251769647,0.951921500000026,1.02150519999941,"hit","BL",4,1.5951,241428,NA
1,39,2,"A",90,"small","up",0.043,"left","left",2.6669,93.1479354419294,-12.0868,8.8561,0.168035049013825,17.5462961094061,1,5.6185572185449,1.65566179999951,1.80568799999946,"CR","TL",1,0.9253,246811,NA
1,40,2,"A",0,"small","down",0.043,"right","right",1.8163,61.337981698639,12.132,-9.195,0.235444579708651,15.4203460644644,1,8.38098632248974,0.885182400000303,1.02217680000012,"hit","BL",3,1.2067,252644,NA
1,41,2,"A",0,"big","up",0.043,"right","right",2.2675,57.1932831866578,11.4542,7.5684,1.53215653110009,13.8661896253506,1,6.05463108536435,1.53611079999973,1.65537940000013,"hit","BL",1,1.193,258011,NA
1,42,2,"A",0,"small","mid",0.043,"right","right",2.2494,42.5554293460472,15.0012,0.0452,0.0451990886302828,15.478717051342,1,6.66885008841638,0.672591900000043,1.21854840000015,"hit","BR",2,1.2616,263712,NA
1,43,2,"A",90,"big","down",0.043,"left","left",1.8167,66.949150036761,-10.0309,-8.9465,1.96983157278303,13.7368805639954,1,7.39872695872871,0.651977299999999,1.18520819999958,"CR","BL",2,1.0945,269561,NA
1,44,2,"A",0,"small","mid",0.043,"right","right",2.0992,50.2817535849942,14.7301,0.0678,0.278324253922134,14.7397188222797,1,7.01720867478015,1.0360940999999,1.22286859999986,"hit","TL",3,1.6274,274611,NA
1,45,2,"A",90,"big","up",0.043,"left","left",2.1349,74.8092710131647,-11.2735,7.2521,1.89291555570719,13.9818048247523,1,6.2787109479775,0.73845750000055,1.45495670000037,"CR","TL",2,1.0889,280677,NA
1,46,2,"A",90,"small","mid",0.043,"left","left",2.0499,65.8521717616237,-14.956,-0.0226,0.0494831668663841,15.0406762361728,1,7.29600460724614,1.2207441999999,1.28871439999966,"CR","BR",3,1.1419,286044,NA
1,47,2,"A",90,"big","mid",0.043,"right","left",2.1683,87.9678509606358,15.2045,-0.7004,0.729597907579927,15.2371723215759,0,7.01970423591846,1.38896019999993,1.4389914000003,"FA","TL",1,1.2394,291477,NA
1,48,2,"A",0,"big","mid",0.043,"left","right",2.9162,70.3114654380438,-13.5553,-0.9715,1.74097565949324,13.6872774692162,0,4.66025518280726,1.83911619999981,2.08592339999996,"miss","TR",1,1.0449,297227,NA
1,49,3,"A",0,"big","up",0.043,"right","right",2.0831,40.4594125272237,10.8894,7.5684,1.8119177594473,13.4366904269137,1,6.36593105727508,1.1044122000003,1.22226330000012,"hit","TL",2,0.9077,319928,NA
1,50,3,"A",90,"small","down",0.043,"right","left",2.1009,47.426944305743,12.019,-9.082,0.0841992727341828,15.3178776586601,0,7.1704081901671,1.02126780000071,1.16912570000022,"FA","TR",2,1.4732,325261,NA
1,51,3,"A",0,"small","down",0.043,"left","right",1.9002,74.296503198421,-12.019,-9.0368,0.0414542719259865,16.7497141606259,0,7.91340937372621,0.668920699999944,0.805622299999413,"miss","TR",2,1.1952,330977,NA
1,52,3,"A",90,"small","up",0.043,"left","left",1.9163,52.6661427985441,-11.9964,8.8561,0.143938620220244,15.0015789763113,1,7.78105559593188,0.852548800000477,1.0533919999998,"CR","TL",3,1.1804,336410,NA
1,53,3,"A",0,"small","up",0.043,"right","right",2.1519,69.9185667795557,12.0868,8.8109,0.20804050051595,15.2605561736265,1,6.95065188071518,0.90274110000064,1.14098190000004,"hit","BR",3,1.6213,341646,NA
1,54,3,"A",90,"small","up",0.043,"left","left",2.0835,92.2770977274646,-12.019,8.9465,0.0567980170459355,15.9860389126596,1,7.19138228578516,0.821171399999912,1.3217396,"CR","TR",2,0.9254,347560,NA
1,55,3,"A",90,"small","down",0.043,"left","left",2.2666,51.3027335133836,-12.1997,-9.1046,0.225478425095076,15.4309959656141,1,6.71593416511925,1.32148120000056,1.58575800000017,"CR","TR",3,0.8431,352712,NA
1,56,3,"A",0,"small","mid",0.043,"right","right",1.6838,53.5579405889944,15.2271,-0.0452,0.231532235024425,15.3101945507616,1,9.04322918530648,0.751672899999903,0.852193099999567,"hit","BL",2,0.9611,357962,NA
1,57,3,"A",90,"big","down",0.043,"left","left",2.5333,54.1364088721404,-13.2616,-7.8621,1.69896264297722,18.6544107756345,1,6.08580417661333,0.757698099999288,0.901839899999686,"CR","TR",3,2.4263,362845,NA
1,58,3,"A",0,"big","down",0.043,"right","right",1.9172,66.3714419473357,10.6635,-9.1498,1.3448943306193,14.6484853284401,1,7.3288448618867,0.722068899999613,1.25528779999968,"hit","TR",1,1.0077,370143,NA
1,59,3,"A",90,"big","mid",0.043,"left","left",2.0003,52.3811112600667,-13.2842,-0.1807,1.72533336921934,13.6069626664442,1,6.64186412310822,1.05246079999961,1.32167389999995,"CR","BR",2,2.0116,375210,NA
1,60,3,"A",90,"big","mid",0.043,"right","left",1.4994,47.1579576275506,13.3519,-0.2711,1.67021387257214,13.3773451701152,0,8.90670380947988,0.65540989999954,0.819214999999531,"FA","BL",2,1.494,381560,NA
1,61,3,"A",90,"big","up",0.043,"left","left",1.8674,51.9154256181934,-11.3412,7.4328,1.70002133530772,13.7487811467242,1,7.26138816872124,0.971996799999943,1.14118800000051,"CR","BL",1,1.2233,386894,NA
1,62,3,"A",90,"small","mid",0.043,"left","left",2.8001,92.1615251223033,-15.1593,0,0.159304197187328,21.6625215233055,1,5.413814280144,1.27224429999933,1.73755889999939,"CR","TR",1,1.2436,397475,NA
1,63,3,"A",0,"small","down",0.043,"right","right",2.0828,92.6626036204245,12.2901,-8.9691,0.291751038112572,15.3899128383779,1,7.30510811294854,0.554432099999758,1.26872180000009,"hit","TR",1,1.3451,403659,NA
1,64,3,"A",90,"small","mid",0.043,"right","left",1.9847,128.166584901273,15.0012,-0.0226,0.0226218398028459,15.8259612311265,0,7.55825544967078,0.605386199999884,1.30664879999949,"FA","BR",2,1.7254,409426,NA
1,65,3,"A",0,"big","mid",0.043,"left","right",2.1512,71.538510822778,-13.6456,-0.7681,1.55702801741783,13.7838239508766,0,6.35325629494495,1.12092400000074,1.6780744000007,"miss","BR",1,0.8595,415475,NA
1,66,3,"A",0,"small","up",0.043,"left","right",2.8661,48.7572851686045,-11.9512,8.9691,0.0577570484757742,15.530829519541,0,5.21341903939274,1.46872209999947,1.76935989999947,"miss","TL",1,2.2264,420827,NA
1,67,3,"A",0,"big","mid",0.043,"left","right",2.152,56.8201753975463,-14.1878,-0.5874,1.00231268277309,15.8080992823843,0,6.59865641619192,1.0035328999993,1.24174369999946,"miss","BR",2,2.0881,428160,NA
1,68,3,"A",90,"big","down",0.043,"left","left",2.533,55.5587481593227,-10.5731,-8.7657,1.44599594632825,14.6366822117054,1,5.42204431334006,1.28814280000006,1.87192980000054,"CR","BL",2,1.2764,434744,NA
1,69,3,"A",90,"big","up",0.043,"right","left",1.7664,51.5434544225918,10.7087,7.4102,2.04816740374776,13.1323705988382,0,7.37254433183871,0.822319599999901,1.13755760000004,"FA","TR",1,1.244,440893,NA
1,70,3,"A",0,"small","mid",0.043,"right","right",2.5671,55.6437163003865,15.0238,-0.0452,0.0510465425510903,16.5952326577625,1,5.85244649640859,0.918663399999787,1.61963809999997,"hit","BR",3,2.042,446243,NA
1,71,3,"A",0,"big","down",0.043,"right","right",2.2998,44.2875733297262,10.7313,-8.3817,1.41140120691139,13.8585053929119,1,5.92068625835898,0.620918999999958,1.45473020000009,"hit","TL",2,0.9303,453193,NA
1,72,3,"A",0,"big","up",0.043,"right","right",1.9327,71.7984965358392,11.1831,7.7491,1.49402315256535,13.6809787467391,1,7.03951461427801,1.16957970000021,1.23843529999976,"hit","TR",4,1.1628,458560,NA
1,73,4,"A",90,"big","up",0.043,"right","left",2.0335,83.3877022325584,11.8383,7.6813,1.3285647765418,16.2595042604169,0,6.93961219144046,0.854987300000175,1.3056602000006,"FA","TR",1,1.4597,486358,NA
1,74,4,"A",90,"big","down",0.043,"left","left",2.1515,38.3791085476837,-11.409,-7.478,1.63272341709355,13.7878691482781,1,6.34031786276477,1.32124589999967,1.5388211999998,"CR","TL",1,0.941,492195,NA
1,75,4,"A",0,"big","down",0.043,"left","right",1.9006,70.5487664280249,-10.5053,-8.1106,1.73929009572081,13.5374084397878,0,6.98305853529333,0.742491599999994,1.25498630000038,"miss","TR",2,1.3597,502874,NA
1,76,4,"A",0,"big","mid",0.043,"right","right",1.2675,48.9732021920052,12.8097,-0.5648,2.26192542378929,13.0360315804768,1,10.1158099832044,0.673020899999756,0.755772000000434,"hit","BR",4,1.0446,508476,NA
1,77,4,"A",0,"big","down",0.043,"right","right",1.9999,51.0828891090909,10.6861,-8.2235,1.52621436002979,14.9746087684593,1,6.74242554034723,0.785876900000403,1.32252359999984,"hit","TR",2,1.8274,513125,NA
1,78,4,"A",0,"small","up",0.043,"right","right",2.2998,48.923105763186,12.0642,9.1046,0.122739494837722,16.9802905155432,1,6.57208194823516,0.955064900000252,1.10460169999988,"hit","TL",2,2.0793,519091,NA
1,79,4,"A",90,"big","mid",0.043,"left","left",1.5168,55.6521781510964,-13.6456,0.1356,1.36113354315397,13.6605556214141,1,8.99669652511379,0.75496209999983,0.869885400000385,"CR","TR",3,1.0277,525608,NA
1,80,4,"A",90,"small","up",0.043,"left","left",2.467,128.998573150914,-11.8383,8.8109,0.248815021326718,15.2334794807828,1,5.98197765076406,1.55529810000007,1.59177269999964,"CR","TL",3,1.374,530291,NA
1,81,4,"A",0,"big","up",0.043,"right","right",2.3005,76.9822353161143,10.8442,7.6361,1.78773086267442,14.083085572944,1,5.76531051421971,0.672476299999289,1.6535772999996,"hit","BR",1,1.1768,536277,NA
1,82,4,"A",90,"small","up",0.043,"left","left",2.5002,100.782820925915,-12.0868,9.0368,0.0942748912356012,15.8703070432082,1,6.03611981325432,1.05418779999945,1.12283839999964,"CR","BR",1,1.4604,541893,NA
1,83,4,"A",90,"small","down",0.043,"right","left",2.4008,56.8181361550928,11.8834,-9.1498,0.189803428281945,15.4352418016686,0,6.24697127697139,1.28604129999985,1.45599270000002,"FA","TL",1,1.1615,548191,NA
1,84,4,"A",90,"big","up",0.043,"left","left",2.3668,49.6326887332737,-11.6575,7.5909,1.45007396672727,14.1117931589555,1,5.87759231453747,1.60432140000012,1.73520680000001,"CR","BL",2,1.094,554092,NA
1,85,4,"A",90,"big","mid",0.043,"left","left",2.1693,43.1913655852895,-13.5101,-0.5648,1.59338089102644,13.5445885490933,1,6.2332792107429,1.22323000000051,1.48863220000021,"CR","BR",2,1.2446,559692,NA
1,86,4,"A",0,"small","mid",0.043,"left","right",2.2331,57.8239883395715,-15.0915,0,0.0915278743981158,15.5218719723279,0,6.75797617913359,1.03839160000007,1.22110220000013,"miss","TR",2,1.3087,565241,NA
1,87,4,"A",90,"small","down",0.043,"left","left",1.7501,136.342912654896,-11.8383,-9.0368,0.165878932057005,18.0830089545033,1,8.50997220660535,0.569523999999547,1.03916579999986,"CR","BR",3,1.1117,571126,NA
1,88,4,"A",90,"small","mid",0.043,"right","left",1.9501,98.2544110264591,15.1141,-0.0904,0.145567247349085,15.2425224265107,0,7.7505324901462,0.988921300000584,1.11942760000056,"FA","TR",1,1.0744,576225,NA
1,89,4,"A",90,"big","down",0.043,"left","left",2.1658,71.1319180566551,-10.8668,-7.7717,1.67119461437923,13.5924318341278,1,6.16850270721046,0.622338500000296,1.42064160000064,"CR","BL",3,1.7107,581392,NA
1,90,4,"A",0,"small","mid",0.043,"left","right",2.7335,43.7460633589536,-14.9108,-0.0226,0.0920252496620749,15.0200765282188,0,5.45488280076788,0.905602099999669,1.77202409999973,"miss","BL",2,1.4063,587609,NA
1,91,4,"A",0,"small","up",0.043,"right","right",2.9166,51.2379296230532,11.9964,8.9691,0.0311410082359006,18.0151791128694,1,5.13558307789348,1.7707233000001,1.8889164000002,"hit","BL",1,2.043,593991,NA
1,92,4,"A",0,"big","up",0.043,"left","right",2.1343,47.8506964012522,-11.4316,7.5232,1.58243251977167,14.2153737937854,0,6.4118417139946,1.05181790000006,1.52338820000023,"miss","BR",1,1.0411,601292,NA
1,93,4,"A",90,"small","mid",0.043,"left","left",2.3002,68.4475707722702,-14.843,-0.1581,0.222832112249383,14.871008768282,1,6.45337955435671,1.25527669999974,1.31946169999992,"CR","BR",3,1.9596,606606,NA
1,94,4,"A",0,"small","down",0.043,"left","right",2.8337,43.5877486856655,-12.0642,-8.9691,0.0712505501496951,15.3693582117629,0,5.30509576590684,0.822538699999313,1.75187069999993,"miss","TR",1,1.0602,613009,NA
1,95,4,"A",0,"small","down",0.043,"right","right",2.8502,62.7846344081527,11.9738,-8.9013,0.102123134695001,16.9070208572035,1,5.23469453452176,0.57019290000062,1.3398487000004,"hit","BR",1,1.243,619241,NA
1,96,4,"A",0,"big","mid",0.043,"right","right",1.8008,99.7431092042416,13.5553,-0.0678,1.44632435081365,19.4034357247821,1,7.52735582734266,0.822897300000477,0.870382600000084,"hit","BL",4,0.744,625674,NA
1,97,4,"A",0,"big","mid",0.043,"right","right",1.8001,34.1862182258735,13.2616,0.2485,1.75610578974047,13.3043363543354,1,7.36862448006764,0.938915400000042,1.07440550000047,"hit","TR",3,3.143,668408,NA
1,98,4,"A",0,"small","up",0.043,"right","right",1.5324,98.9739992901665,12.1094,8.9691,0.113659989243796,15.4754065523063,1,9.83383772254835,0.538497700000335,0.787612299999637,"hit","TR",3,1.1117,675492,NA
1,99,4,"A",0,"small","mid",0.043,"right","right",2.0507,58.8612651716652,15.0012,0,0.00115944401249557,16.3165224869972,1,7.31525933126427,0.569580100000167,1.00372870000047,"hit","TL",2,0.994,680474,NA
1,100,4,"A",90,"small","down",0.043,"right","left",2.9834,50.7046474703225,11.8834,-9.1272,0.17253112088554,15.6425874206139,0,5.02255969274075,1.52137089999997,1.8722628000005,"FA","BL",1,1.0087,685657,NA
1,101,4,"A",90,"small","up",0.043,"left","left",2.4333,55.1759146847651,-11.9964,9.0594,0.0595435212234841,15.2009063481178,1,6.17796877005763,1.45561220000036,1.55574830000023,"CR","TR",2,2.2273,691990,NA
1,102,4,"A",0,"small","down",0.043,"right","right",1.5671,91.2379127128093,12.132,-9.2402,0.274037413687194,15.3771007632763,1,9.73116617038059,0.785276099999464,0.854913499999384,"hit","BR",2,1.1597,698790,NA
1,103,4,"A",90,"small","down",0.043,"left","left",1.8324,50.7265731742538,-12.1771,-9.1498,0.231995290683275,15.5414286372824,1,8.31243299971443,0.588179699999273,1.05250879999949,"CR","TL",2,1.1793,703656,NA
1,104,4,"A",0,"small","mid",0.043,"right","right",2.1503,45.0220927515447,14.8656,-0.0678,0.150516319905744,14.9610746503479,1,6.91347089200285,0.884852399999545,1.08631530000002,"hit","BL",1,0.7758,709010,NA
1,105,4,"A",90,"big","mid",0.043,"right","left",2.3167,138.729241556324,14.1427,0.0452,0.858530485348632,14.2391467868869,0,6.10467150020515,1.43610239999998,1.47228809999979,"FA","BR",2,1.2789,714073,NA
1,106,4,"A",0,"big","mid",0.043,"left","right",2.0328,59.463219651145,-13.3293,0.113,1.67447104623603,13.3321519281904,0,6.55727212640836,1.02224959999967,1.40487029999986,"miss","TL",3,1.1567,719906,NA
1,107,4,"A",0,"big","mid",0.043,"right","right",2.5334,165.305733847613,13.6908,0.0226,1.30937771410084,23.3218426533095,1,5.4040574469369,0.989153800000167,1.22196360000089,"hit","-1",0,1.3606,730573,NA
1,108,4,"A",0,"small","down",0.043,"right","right",1.9002,90.5729653116602,11.7931,-8.9013,0.229258379345472,15.7176340385599,1,7.77583180559834,0.53516639999998,1.06850590000067,"hit","BL",3,1.243,736806,NA
1,109,4,"A",90,"big","up",0.043,"left","left",1.9334,67.0628398729779,-11.409,8.2461,0.957914508632626,14.4677090030615,1,7.28118196789026,1.01919569999973,1.25568349999958,"CR","TR",1,1.1624,742290,NA
1,110,4,"A",0,"big","down",0.043,"right","right",2.4339,44.5132349637649,10.3698,-9.0143,1.63028490080303,13.8853071946473,1,5.64526079301803,1.15712520000034,1.45188099999996,"hit","TR",2,1.5253,747723,NA
1,111,4,"A",90,"big","up",0.043,"left","left",1.5667,51.1054649034189,-11.2057,7.2747,1.89940478112951,13.5571587095309,1,8.52758953936466,0.736563299999943,0.919617900000048,"CR","BL",2,1.2422,754022,NA
1,112,4,"A",90,"small","up",0.043,"left","left",2.5662,42.9925135440823,-12.1546,8.9465,0.163559993626642,16.4052582735703,1,5.88109296445565,1.23861360000046,1.47133450000001,"CR","TR",2,1.5284,758975,NA
1,113,4,"A",90,"small","mid",0.043,"left","left",2.2497,63.8097950300232,-15.0012,-0.0678,0.0677862393207184,15.2814774892052,1,6.66813051287636,1.3056945999997,1.43798700000025,"CR","TR",3,1.1468,765207,NA
1,114,4,"A",90,"big","mid",0.043,"left","left",2.0162,48.3586795633256,-13.3971,-0.61,1.71502447358201,13.4751467272695,1,6.65146614821303,1.18560720000005,1.35556970000016,"CR","TL",2,2.2735,770939,NA
1,115,4,"A",0,"big","up",0.043,"right","right",2.0838,103.120677525731,10.7087,7.975,1.64868369147686,17.7405217113556,1,6.40757262061413,0.6398494999994,1.02272339999945,"hit","BR",2,2.6283,777373,NA
1,116,4,"A",90,"big","down",0.043,"left","left",1.9998,54.4305552325735,-10.7764,-8.3817,1.37092674285549,13.8259398291168,1,6.82684277738223,0.736075600000731,1.11849170000005,"CR","TL",3,0.9803,784322,NA
1,117,4,"A",0,"big","up",0.043,"right","right",1.6355,51.0863285187268,11.4542,7.4554,1.63820092225925,13.8255419860164,1,8.35627372877139,0.752844300000106,0.903059299999768,"hit","BL",2,1.3755,789540,NA
1,118,4,"A",0,"big","down",0.043,"right","right",2.1851,67.9963198002662,10.5505,-8.6754,1.48539355962405,13.8600235875006,1,6.25116757967923,1.05439630000001,1.21947159999945,"hit","TL",2,1.0921,794789,NA
1,119,4,"A",90,"small","mid",0.043,"left","left",2.1498,76.17975124385,-14.956,-0.0904,0.100521807026332,15.1028417733031,1,6.95696209017848,1.0521662000001,1.22127369999998,"CR","TL",2,1.6279,800207,NA
1,120,4,"A",90,"small","mid",0.043,"right","left",1.9501,66.1458281271235,14.7978,-0.0678,0.213227921503756,17.7262956338387,0,7.58827048943258,0.555569000000105,0.954332999999679,"FA","BR",1,2.5223,811555,NA
1,121,5,"A",0,"small","down",0.043,"right","right",2.1356,55.8651809101803,12.0642,-8.9691,0.0712505501496951,15.1217378505177,1,7.03915302365603,1.19012920000023,1.38533800000005,"hit","TR",1,1.0542,842706,NA
1,122,5,"A",0,"small","up",0.043,"left","right",2.1835,46.9885877045667,-12.0642,8.9691,0.0712505501496951,15.3076542831754,0,6.88479271666039,1.00407429999996,1.22244839999985,"miss","BL",1,1.3588,848239,NA
1,123,5,"A",0,"small","mid",0.043,"left","right",2.5665,49.5517316024401,-15.0238,-0.0226,0.0327801697597456,15.0564283455492,0,5.85387557671025,1.33777959999952,1.45563959999981,"miss","BL",2,1.1234,854123,NA
1,124,5,"A",0,"small","up",0.043,"right","right",2.2843,47.814988684813,11.9738,8.9239,0.080494855988079,16.0765037359902,1,6.53734992454189,1.03982379999979,1.25368939999953,"hit","TL",1,1.8921,860157,NA
1,125,5,"A",90,"small","up",0.043,"left","left",2.7336,62.0961031930868,-11.906,8.9013,0.136278890341784,15.6434380160365,1,5.43817005875483,0.935434799999712,1.80593469999985,"CR","TL",2,1.4274,866572,NA
1,126,5,"A",90,"small","down",0.043,"left","left",1.8665,56.2171207555433,-11.7931,-9.0143,0.207409997387069,15.1069931708236,1,7.9524453246686,1.00270330000058,1.13637180000023,"CR","TR",3,1.045,872873,NA
1,127,5,"A",90,"big","up",0.043,"left","left",1.7988,104.430533602038,-11.4994,7.5232,1.55937136670085,14.1838605134086,1,7.63952057912188,0.65187479999986,1.13543779999964,"CR","TL",4,1.4106,878022,NA
1,128,5,"A",90,"small","down",0.043,"left","left",1.9002,55.7485383193814,-11.9512,-9.0143,0.0508143445191863,15.6387820047092,1,7.87786400990378,0.887861600000178,1.06928739999967,"CR","TL",3,1.3752,883473,NA
1,129,5,"A",90,"big","down",0.043,"left","left",1.7832,69.4069785080238,-11.6575,-7.4102,1.6262581397253,15.3907422663219,1,7.74626530641576,0.539649700000155,1.10508229999959,"CR","TR",3,1.0782,889089,NA
1,130,5,"A",90,"small","mid",0.043,"left","left",2.2172,49.2722094017247,-14.956,-0.1581,0.164158287741457,15.0789028669412,1,6.74583557371835,1.01937569999973,1.16905489999954,"CR","BL",2,2.7251,894189,NA
1,131,5,"A",90,"big","up",0.043,"right","left",2.2163,53.2794196330001,11.2735,7.4328,1.7274151500213,13.980499261071,0,6.09275492696581,1.15321919999951,1.61813410000013,"FA","BL",1,0.8607,901272,NA
1,132,5,"A",90,"big","mid",0.043,"left","left",1.5835,60.5206180164011,-12.9905,-0.4293,2.05487204097775,13.079685503035,1,8.20791708642173,0.923562500000116,0.985200099999929,"CR","TL",2,1.1283,906589,NA
1,133,5,"A",90,"big","mid",0.043,"right","left",1.6514,49.3837211794777,13.5779,-1.0166,1.74815857360608,13.9810707082714,0,8.24513798843726,0.737814000000071,0.918792899999971,"FA","TL",1,1.0411,916787,NA
1,134,5,"A",0,"big","mid",0.043,"left","right",1.5498,52.5175950739597,-13.126,-0.7455,2.01684179478753,13.1954171196086,0,8.48322313823808,0.785498799999914,0.891147799999999,"miss","TR",2,1.3776,921622,NA
1,135,5,"A",0,"small","down",0.043,"right","right",1.617,46.4032837298437,11.7479,-9.0368,0.254781988082327,14.9819997668004,1,9.16584011267638,0.838789899999938,0.988127300000087,"hit","BR",4,1.3274,926787,NA
1,136,5,"A",90,"big","down",0.043,"left","left",1.7016,48.9516502256209,-11.2735,-8.2009,1.07998273012039,14.2848055265285,1,8.19300347650052,0.587671999999657,1.0858146999999,"CR","TR",4,1.5411,931972,NA
1,137,5,"A",0,"big","up",0.043,"right","right",1.7165,41.892058654607,10.8442,7.5232,1.87533148096213,13.3069610308861,1,7.68888934622483,0.970617099999799,1.13540180000018,"hit","TR",3,1.539,937453,NA
1,138,5,"A",0,"big","mid",0.043,"left","right",1.9009,47.5592724154258,-13.6456,-0.6778,1.51448770072865,13.7021754888673,0,7.18748424440818,0.937040200000411,1.15682060000017,"miss","TL",1,0.646,942955,NA
1,139,5,"A",0,"big","down",0.043,"right","right",1.4825,43.9275147850449,10.8216,-8.5398,1.26504909292484,13.8686406785735,1,9.29898540191595,0.770887699999548,0.921031300000323,"hit","TL",3,0.8783,947739,NA
1,140,5,"A",90,"small","mid",0.043,"left","left",2.1159,44.1576380457393,-14.8204,-0.1581,0.239286045490475,15.534838919599,1,7.00482706637086,0.91919660000076,1.05568830000084,"CR","TR",2,1.2457,952439,NA
1,141,5,"A",0,"small","mid",0.043,"right","right",2.6326,53.2240489690204,15.0915,-0.1356,0.163559993626644,15.108265325353,1,5.73270332593752,1.5053869000003,1.73797720000039,"hit","TR",1,1.2955,958137,NA
1,142,5,"A",90,"big","mid",0.043,"left","left",1.8331,46.8838942532809,-12.9453,-0.4067,2.09457742798892,12.9737600567878,1,7.06547450333965,0.985190500000499,1.18859479999992,"CR","BR",4,1.4063,964205,NA
1,143,5,"A",0,"big","down",0.043,"right","right",1.4501,60.3186386970107,10.9346,-7.5006,1.83939685307692,13.3730558930681,1,9.14396977112367,0.704440399999839,0.822558999999274,"hit","TL",3,0.9921,969589,NA
1,144,5,"A",0,"big","down",0.043,"right","right",1.9348,80.3134150561791,10.8216,-8.698,1.21647351497941,15.2048621265387,1,7.176054063625,0.672125399999459,1.28695220000009,"hit","TL",1,0.9764,979620,NA
1,145,6,"A",90,"big","up",0.043,"left","left",1.7832,57.9808843615183,-11.3638,7.6587,1.48449727127944,13.7733850525281,1,7.68493491280426,1.08594799999992,1.27245530000073,"CR","TL",1,0.9425,1006904,NA
1,146,6,"A",90,"big","mid",0.043,"right","left",1.8663,65.6053118120627,13.0582,-0.3163,1.96735303791632,13.0871675840349,0,6.99891053155241,1.06856650000009,1.15515520000008,"FA","TR",1,0.9797,1011772,NA
1,147,6,"A",0,"big","down",0.043,"left","right",1.7832,44.7511530934237,-10.4601,-8.0654,1.80129424038424,13.4313854765687,0,7.40700124747613,0.95465570000033,1.20503330000065,"miss","BR",1,1.0753,1016855,NA
1,148,6,"A",0,"small","down",0.043,"right","right",2.1326,80.5178269190053,12.132,-9.0368,0.137008469367189,15.9729348324528,1,7.09369820031525,1.00514500000008,1.52090230000067,"hit","BL",2,1.0455,1021955,NA
1,149,6,"A",90,"small","down",0.043,"left","left",2.066,44.6153232677994,-11.7705,-9.0143,0.229953953389487,15.2888589280973,1,7.17610499979907,1.00218940000013,1.15475500000048,"CR","BL",2,1.0133,1027270,NA
1,150,6,"A",90,"small","mid",0.043,"right","left",1.7678,51.3585387166079,14.9334,-0.1356,0.151037506140899,15.2193879523287,0,8.44796981403043,0.685214999999516,0.887304699999731,"FA","TR",1,1.2233,1032587,NA
1,151,6,"A",90,"small","up",0.043,"left","left",2.0003,53.0816048860975,-12.1997,9.1498,0.249672627572943,15.5135752455341,1,7.62364473811683,0.95539269999972,1.10466169999927,"CR","TL",2,1.0597,1037921,NA
1,152,6,"A",0,"small","mid",0.043,"right","right",2.4667,40.7401351045379,14.7752,0.0226,0.225894210911147,16.0198306430306,1,5.98981349616252,1.00556529999994,1.15228839999963,"hit","BR",1,1.2617,1043121,NA
1,153,6,"A",0,"big","mid",0.043,"left","right",1.7665,49.7756858945132,-13.0131,-0.4744,2.04280257753215,13.0860424465072,0,7.37162362407612,0.818680399999721,0.937730799999372,"miss","TR",2,1.3795,1048987,NA
1,154,6,"A",0,"small","up",0.043,"right","right",2.2191,38.9286724138071,12.1094,8.9013,0.147327226265853,15.6258734037895,1,6.77268694987036,0.888582900000074,1.42159360000005,"hit","BR",2,1.2886,1054471,NA
1,155,6,"A",0,"big","up",0.043,"right","right",2.0336,80.1669378226277,10.9798,7.8169,1.56226736603897,13.6742826128783,1,6.6276955643622,0.789158800000223,1.36830490000011,"hit","BL",2,1.894,1060220,NA
1,156,6,"A",0,"big","up",0.043,"right","right",1.6331,89.5455081040774,10.8668,8.1106,1.44056428424904,16.7510435815475,1,8.30312635074235,0.568739199999982,0.98819900000035,"hit","BL",3,0.9272,1071736,NA
1,157,6,"A",90,"small","mid",0.043,"right","left",1.9333,50.0357939606105,15.1367,-0.0904,0.16387998245874,15.2230437228103,0,7.82958689643878,0.937719100000322,1.06928580000022,"FA","TR",2,0.9603,1076536,NA
1,158,6,"A",0,"small","up",0.043,"right","right",2.0675,103.636133475324,11.9964,8.9239,0.0762021524554709,22.0653709398499,1,7.23161915282038,0.604336999999759,1.0553488000005,"hit","BR",2,0.9739,1081770,NA
1,159,6,"A",90,"big","mid",0.043,"left","left",1.5844,50.1122578360066,-13.6456,-1.0392,1.70713896319126,13.7302572137721,1,8.63732048120727,0.838406199999554,0.968988599999648,"CR","BR",2,1.7941,1087153,NA
1,160,6,"A",0,"big","up",0.043,"left","right",1.5831,57.5883848634294,-13.0131,7.5684,1.75381948096394,15.3551515564521,0,9.50884949192744,0.772332900000038,1.08669269999973,"miss","BL",1,0.9759,1092870,NA
1,161,6,"A",90,"big","up",0.043,"right","left",2.152,50.7214214982128,11.0024,7.5006,1.80098693048544,14.1753506870098,0,6.18750593127671,0.985237900000357,1.55583790000037,"FA","TR",2,1.292,1097571,NA
1,162,6,"A",90,"big","down",0.043,"left","left",1.6339,57.1587347601756,-10.3246,-8.2009,1.85620387434543,13.327380874597,1,8.06972965135615,0.923629199999596,1.17111469999963,"CR","BL",1,0.9428,1103253,NA
1,163,6,"A",0,"small","mid",0.043,"right","right",1.9333,44.7534966908176,15.2271,-0.1581,0.276722470192689,15.2358683864734,1,7.87662039922049,1.03809350000029,1.13859180000054,"hit","BL",1,0.9451,1107973,NA
1,164,6,"A",0,"big","down",0.043,"left","right",1.6999,62.1611710123707,-11.0249,-7.6587,1.65823564290224,13.5230579976705,0,7.8969684131292,0.921701199999916,1.10395840000001,"miss","BR",1,0.9939,1113087,NA
1,165,6,"A",90,"small","up",0.043,"left","left",1.9498,49.4889321806304,-11.8609,9.1046,0.174086552237465,15.3819730346014,1,7.66853917954344,0.988692199999605,1.20660309999948,"CR","TL",2,1.241,1118019,NA
1,166,6,"A",90,"big","down",0.043,"right","left",2.0833,49.635740671665,10.4827,-9.1046,1.52086469346131,16.6380972137539,0,6.66472923113081,0.801782200000162,0.938525200000186,"FA","TR",2,1.195,1123554,NA
1,167,6,"A",0,"big","mid",0.043,"left","right",2.1344,55.257554414131,-13.1938,-0.61,1.90643005836311,13.2190307914399,0,6.18798852252754,1.30172479999965,1.40217029999985,"miss","TL",2,0.9764,1129169,NA
1,168,6,"A",90,"small","down",0.043,"right","left",1.8833,66.9722747414765,12.132,-9.0143,0.132729048144167,15.6258353519817,0,8.02542727891874,0.920903199999884,1.05173139999988,"FA","BR",2,1.1763,1134421,NA
1,169,7,"A",0,"big","down",0.043,"right","right",1.4321,73.6599599368852,11.906,-8.9465,0.108135641697358,15.3864213521889,1,10.3989575129162,0.804976999999781,0.937572900000305,"hit","-1",0,1.73,1174318,NA
1,170,7,"A",90,"big","mid",0.043,"right","left",1.7671,65.1330535638307,13.5553,0.1807,1.4559966726154,13.5859645414061,0,7.67156289082891,0.818855500000609,0.988920100000541,"FA","BR",2,1.2744,1179620,NA
1,171,7,"A",0,"big","up",0.043,"right","right",1.6834,46.0791548305537,11.0249,7.3424,1.92308274561082,13.3633342881876,1,7.8686854891037,0.852536899999905,0.952657400000135,"hit","BL",2,1.2431,1184903,NA
1,172,7,"A",0,"small","mid",0.043,"right","right",1.7333,37.4103022829872,15.0915,-0.1581,0.182721412944858,15.1232359568916,1,8.70734389555484,0.837409799999477,0.919688599999972,"hit","TL",2,1.1283,1190170,NA
1,173,7,"A",90,"big","down",0.043,"left","left",1.6164,42.978285348343,-11.8157,-8.0654,0.952620988077606,14.4975399442595,1,8.85053934305767,0.788442500000201,1.02106230000027,"CR","BR",2,1.2937,1195268,NA
1,174,7,"A",0,"big","down",0.043,"right","right",1.7664,68.7383351899251,10.5053,-8.5624,1.55740951227485,14.4694508150385,1,7.67255556548806,0.671141099999659,1.18526569999995,"hit","TR",3,1.0813,1200520,NA
1,175,7,"A",0,"big","mid",0.043,"right","right",2.083,62.7492200948322,13.5101,-0.3163,1.52312167510853,13.7363251116023,1,6.48764072091978,0.921199599999454,1.53520669999943,"hit","BL",2,1.0101,1205703,NA
1,176,7,"A",90,"big","up",0.043,"left","left",2.0173,42.7886044577939,-11.2961,7.9072,1.29987298975641,13.8993385420033,1,6.83526337766961,1.2548698999999,1.42365769999924,"CR","TL",1,0.8773,1211037,NA
1,177,7,"A",90,"small","mid",0.043,"right","left",1.6492,84.5743018679622,14.9786,-0.0226,0.031141008235902,15.1142382213018,0,9.08232852297861,0.855764200000522,0.938484799999969,"FA","TL",2,1.6467,1216271,NA
1,178,7,"A",90,"small","mid",0.043,"left","left",2.3339,40.8477192036758,-15.0689,-0.0678,0.0966735221007649,15.5516622842124,1,6.45667928896644,0.919002800000271,1.05258090000007,"CR","BL",4,2.24,1221702,NA
1,179,7,"A",0,"small","down",0.043,"right","right",1.6157,53.9190938104447,11.9738,-9.195,0.196737863790506,15.247468602569,1,9.3440580796471,0.736156800000572,0.854279400000451,"hit","BR",3,1.4473,1228518,NA
1,180,7,"A",90,"big","mid",0.043,"left","left",1.3831,52.2745274577982,-14.0297,-0.1807,0.98699047506054,14.0675306812063,1,10.1445461456281,0.669398799999726,0.787680200000068,"CR","BR",3,1.993,1233822,NA
1,181,7,"A",90,"big","up",0.043,"right","left",2.067,52.664896339476,11.5898,7.0487,1.99392305539205,14.0545084495919,0,6.56273022697101,0.835967899999559,1.15548789999957,"FA","TR",1,1.1793,1239335,NA
1,182,7,"A",90,"small","down",0.043,"left","left",2.6325,79.2068926960672,-12.019,-8.9239,0.0784533038720938,20.7137786116382,1,5.68655208575339,1.27231890000076,1.95585400000073,"CR","BL",1,1.1622,1244720,NA
1,183,7,"A",90,"small","up",0.043,"right","left",1.9,137.218044095609,12.0642,8.7206,0.286723039155699,15.7218260420061,0,7.83476573968477,0.536000199999762,0.95836589999999,"FA","BL",1,1.0107,1250852,NA
1,184,7,"A",90,"small","down",0.043,"left","left",1.4497,57.1281614323209,-11.9964,-9.0594,0.0595435212234841,15.1514313049494,1,10.3698691348155,0.718609300000026,0.837824299999738,"CR","TR",2,1.2313,1256002,NA
1,185,7,"A",0,"big","mid",0.043,"right","right",1.883,62.2795557066656,13.2164,0.0452,1.78418928819947,13.2956259538187,1,7.01879223709209,0.888919099999839,1.07408349999969,"hit","TR",3,1.2916,1260919,NA
1,186,7,"A",90,"big","down",0.043,"left","left",1.6512,58.7773229618518,-12.019,-7.5909,1.40917995884782,14.3432046652065,1,8.60898708092155,0.822347100000115,0.988803999999618,"CR","BL",3,1.946,1266235,NA
1,187,7,"A",0,"small","mid",0.043,"right","right",2.0521,65.5670763261335,14.7978,-0.0678,0.213227921503756,14.890213569184,1,7.21111235915324,1.0904314999998,1.25345519999973,"hit","TL",1,0.84,1272169,NA
1,188,7,"A",0,"small","down",0.043,"right","right",1.7335,53.4274853358228,11.8383,-8.9917,0.161950566030195,15.9394427801387,1,8.57563412057331,0.805578100000275,0.987856100000499,"hit","TR",1,1.1744,1277201,NA
1,189,7,"A",0,"big","up",0.043,"left","right",1.883,64.5411599408325,-11.6349,8.1106,0.961438442187192,14.3821313870865,0,7.53213178303038,1.0528704999997,1.1713565,"miss","BR",1,0.9451,1282253,NA
1,190,7,"A",0,"small","up",0.043,"left","right",2.6839,52.5858151397968,-12.0416,9.0368,0.0555645225104014,17.1604941617511,0,5.60955489999208,1.32024629999978,1.43864969999959,"miss","TL",1,1.2597,1287418,NA
1,191,7,"A",90,"small","up",0.043,"left","left",2.5165,61.4033461541523,-12.0642,9.082,0.10415489994259,16.2129518323921,1,6.00054322810139,1.12218420000045,1.57165280000027,"CR","TR",2,1.3794,1293501,NA
1,192,7,"A",0,"small","up",0.043,"right","right",2.3173,106.296743096943,11.8609,8.9691,0.142540467845249,16.5180950042689,1,6.41694769732344,0.808126599999923,1.33824069999991,"hit","TL",2,1.3408,1299635,NA
10,1,1,"B",90,"big","down",0.0347,"left","right",2.2667,279.307371496807,-10.799,-8.1332,1.48113094981925,70.2252335323915,0,5.96419385274925,0.0730394000001979,0.722718400000304,"FA","TL",1,1.4381,0,NA
10,2,1,"B",90,"small","up",0.0347,"left","right",2.4322,93.8508641948378,-12.132,9.1272,0.183293941579157,24.6726799058004,0,6.24216486620306,0.589185400000133,0.686089800000445,"FA","BL",1,1.0107,5881,NA
10,3,1,"B",90,"big","up",0.0347,"right","right",0.9005,133.467262673925,10.9572,8.3365,1.23601716066656,13.9129486271032,1,15.2898306393158,0.352836100000786,0.439597700000377,"CR","BR",4,1.0106,11464,NA
10,4,1,"B",90,"small","mid",0.0347,"right","right",1.0171,79.4427015699666,15.0463,0.0678,0.0821058139193867,15.324480015304,1,14.7933335527271,0.387786000000233,0.43795609999961,"CR","TR",4,1.0574,15615,NA
10,5,1,"B",0,"big","mid",0.0347,"left","left",1.0822,89.2535721339335,-13.6682,-0.0678,1.33349841594286,13.8814748597529,1,12.6303151142126,0.605824999999641,0.655794699999205,"hit","TL",4,0.9971,19830,NA
10,6,1,"B",0,"big","up",0.0347,"left","left",0.7997,120.874327361473,-10.6635,8.5624,1.40633769971878,14.3351893727592,1,17.1015041707704,0.369204600000558,0.405756400000428,"hit","TL",4,0.9303,24148,NA
10,7,1,"B",90,"big","down",0.0347,"right","right",0.6662,125.935904487352,11.5898,-9.3305,0.526840641085983,15.8119145604573,1,22.3332723235647,0.254513099999713,0.304740399999901,"CR","BR",4,1.0098,28014,NA
10,8,1,"B",90,"small","down",0.0347,"right","right",1.8339,117.163009722876,12.1094,-9.082,0.136712089590922,20.2450973592598,1,8.25375396430502,0.454420199999731,1.03767289999996,"CR","TL",4,0.9597,32031,NA
10,9,1,"B",0,"big","down",0.0347,"right","left",1.5668,83.7380003337148,10.2342,-8.5398,1.82475504125233,24.583402956676,0,8.50705777300654,0.421447499999886,0.504046999999446,"miss","TR",1,0.9604,37065,NA
10,10,1,"B",90,"big","mid",0.0347,"right","right",1.0006,118.646715936544,12.8323,0.1356,2.17191703586849,12.9022940281252,1,12.8253839828486,0.535933399999521,0.619832000000315,"CR","BL",4,1.1887,41730,NA
10,11,1,"B",0,"small","mid",0.0347,"left","left",1.2673,53.4877290503509,-14.8656,0.2485,0.282524928157657,15.0428584015463,1,11.7318700098647,0.421094100000118,0.520725500000481,"hit","BL",4,1.0578,46263,NA
10,12,1,"B",0,"small","up",0.0347,"left","left",1.3503,176.186203756616,-12.0868,8.7657,0.249818231156086,25.143236709304,1,11.0569956409544,0.389221100000213,0.435983399999714,"hit","BL",4,0.9597,50930,NA
10,13,1,"B",0,"big","up",0.0347,"left","left",0.983,109.704761699704,-11.7027,8.4494,0.625689660951077,14.5186091982168,1,14.6840460796269,0.571776600000703,0.622363500000574,"hit","TR",4,1.2147,55481,NA
10,14,1,"B",0,"big","down",0.0347,"right","left",1.8004,80.8196168654534,10.8216,-8.3817,1.33075547276237,13.8552121673108,0,7.6029354111689,1.1016654999994,1.25433529999918,"miss","BL",2,1.1601,59813,NA
10,15,1,"B",0,"small","down",0.0347,"left","left",1.7834,57.785986912539,-11.8383,-8.9917,0.161950566030195,15.3489247625829,1,8.33591263381422,0.602729899999758,0.751800600000024,"hit","BL",4,0.9744,64913,NA
10,16,1,"B",90,"big","mid",0.0347,"left","right",1.5157,143.679919529566,-14.0523,-0.4067,1.03127259656034,18.1953177205646,0,9.27493802045612,0.703042000000096,0.925534800000605,"FA","BL",4,1.1127,70013,NA
10,17,1,"B",0,"big","mid",0.0347,"right","left",2.1171,76.655740490504,14.7978,0.4293,0.474476677126217,14.8236636481374,0,6.9926190593802,1.62227200000052,1.75446300000021,"miss","BL",4,1.0443,74880,NA
10,18,1,"B",90,"small","up",0.0347,"right","right",1.4833,86.8193320624345,11.9512,9.0368,0.061126246948409,15.5276308859327,1,10.1014138541614,0.688968899999963,0.784908800000267,"CR","BR",4,1.042,80281,NA
10,19,1,"B",0,"small","mid",0.0347,"left","left",1.8833,114.715915743847,-14.9108,0.1356,0.162273728536169,21.3633289534211,1,7.9178649998599,0.0739848000002894,1.12021009999989,"hit","TL",2,1.1283,84947,NA
10,20,1,"B",90,"small","down",0.0347,"right","right",0.9497,103.227468546295,12.2449,-9.1498,0.287102861415527,16.3006416344078,1,16.0951924003419,0.335988400000133,0.405841800000417,"CR","TR",4,0.9616,90298,NA
10,21,1,"B",90,"big","up",0.0347,"right","right",0.9333,98.3373852541371,11.3412,8.4946,0.830279295944245,14.3206496820078,1,15.1828060226915,0.435056299999815,0.553821099999368,"CR","BL",3,1.2298,94546,NA
10,22,1,"B",90,"small","mid",0.0347,"right","right",1.4669,143.509603503619,14.843,0,0.156985309162334,14.8932185544047,1,10.1186771731627,0.438957100000152,0.486072900000181,"CR","TL",4,1.0106,98847,NA
10,23,1,"B",0,"small","up",0.0347,"left","left",1.1325,123.868158988735,-12.019,9.0594,0.0623985878789877,18.1292004181921,1,13.2894664471252,0.335931700000401,0.404401500000859,"hit","TL",4,0.992,103664,NA
10,24,1,"B",0,"small","down",0.0347,"left","left",2.2336,114.187352421549,-12.0416,-8.7431,0.260200247925972,25.8914761525137,1,6.66239447348785,0.454640599999948,0.604843600000095,"hit","BR",4,0.9753,107931,NA
10,25,2,"B",90,"small","up",0.0347,"right","right",2.134,123.824558477159,12.0416,8.9013,0.107114859794214,15.9745597817539,1,7.01703829333258,1.00263379999978,1.13853019999988,"CR","TR",3,1.1723,132180,NA
10,26,2,"B",0,"small","mid",0.0347,"left","left",1.3338,113.376431989837,-14.9108,-0.0452,0.0999992827589766,15.1922614389946,1,11.1788882441052,0.504347600000074,0.621799499999725,"hit","BR",4,0.9753,137830,NA
10,27,2,"B",90,"big","mid",0.0347,"right","right",1.0006,105.09436318073,13.239,0.2485,1.77847341044717,13.2612183304711,1,13.2333778676674,0.421438899999885,0.502144400000361,"CR","TL",3,1.1933,142479,NA
10,28,2,"B",0,"big","down",0.0347,"left","left",0.8664,155.221521200787,-11.9964,-8.472,0.527971862671429,15.0495526772196,1,16.9504925589949,0.371781700000611,0.454446000000644,"hit","BR",4,0.945,146913,NA
10,29,2,"B",90,"big","up",0.0347,"right","right",1.7339,68.9971712278553,10.6409,7.7491,1.84715144320067,13.4934593389563,1,7.59193981710244,0.771973799999614,1.17252120000012,"CR","BL",4,0.9764,150862,NA
10,30,2,"B",90,"small","mid",0.0347,"right","right",1.5,69.8659876065917,14.9786,0.0452,0.0500097227635892,15.0635849989181,1,9.98587482492814,0.539013100000375,0.589060600000266,"CR","BL",4,1.0607,155812,NA
10,31,2,"B",90,"big","mid",0.0347,"right","right",1.0839,92.1696294540346,13.5779,-0.0452,1.42286094799837,13.5886188304581,1,12.5274199889345,0.589211500000602,0.671284000000014,"CR","TR",4,1.2233,160513,NA
10,32,2,"B",0,"small","mid",0.0347,"left","left",1.5835,85.0038404947932,-15.1141,-0.0904,0.145567247349085,16.3261284207543,1,9.54499279364328,0.469806899999639,0.624262899999849,"hit","TR",4,1.095,164963,NA
10,33,2,"B",90,"small","up",0.0347,"right","right",1.5332,88.8317023235495,12.0642,8.8787,0.137236579641186,15.6440552069176,1,9.77008626273685,0.569157400000222,0.66936380000061,"CR","TR",4,1.0293,169979,NA
10,34,2,"B",90,"small","mid",0.0347,"right","right",1.7661,115.825244477203,15.1367,-0.0904,0.16387998245874,17.4775093378642,1,8.57095350015592,0.755575299999691,0.801773199999843,"CR","TR",4,1.394,174879,NA
10,35,2,"B",90,"big","up",0.0347,"right","right",1.5165,89.0308714745859,11.9512,8.6528,0.35063182238882,15.4836657648566,1,9.72915945248607,1.03489529999933,1.1693164999997,"CR","TR",3,1.646,180380,NA
10,36,2,"B",0,"small","up",0.0347,"left","left",1.2663,122.880070564241,-11.8834,9.0594,0.130831060689409,16.0678406105773,1,11.8000634848989,0.372279100000014,0.569103400000131,"hit","TL",4,1.0778,185880,NA
10,37,2,"B",0,"big","up",0.0347,"left","left",1.4504,115.925489716746,-12.7645,8.3365,1.01230982942814,17.8754008950005,1,10.5112064465297,0.585900600000059,0.704801900000348,"hit","TR",1,1.0753,190464,NA
10,38,2,"B",0,"small","down",0.0347,"left","left",1.3488,258.846043349641,-12.0868,-8.9013,0.131430331904053,19.7728619821531,1,11.1291252166722,0.355015599999206,0.618296899999223,"hit","TR",4,1.196,195229,NA
10,39,2,"B",90,"big","down",0.0347,"right","right",1.4502,76.337356056477,10.5731,-8.1106,1.68140334203866,13.8244502846298,1,9.18866997956526,0.654711799999859,0.887570199999573,"CR","BR",1,1.5953,200013,NA
10,40,2,"B",0,"big","mid",0.0347,"right","left",1.2836,114.761195789381,16.1534,0.5196,1.26500417807339,17.6874962143813,0,12.5910709086321,0.353974700000435,0.835374999999658,"miss","BL",2,1.8577,205196,NA
10,41,2,"B",0,"big","down",0.0347,"right","left",1.3172,66.6336140817121,11.7931,-8.2009,0.825421468295797,15.2918429055906,0,10.9047801352549,0.269029200000659,0.720463399999971,"miss","TL",1,1.4244,215828,NA
10,42,2,"B",0,"big","mid",0.0347,"right","left",1.4668,81.9714329309371,15.9048,0.1581,0.918559726427058,15.917635633165,0,10.8434750699625,0.670869999999923,0.821292300000096,"miss","TL",4,0.991,220913,NA
10,43,2,"B",90,"small","down",0.0347,"right","right",1.6159,115.918835352638,12.132,-9.1046,0.168401668511212,16.6235436071177,1,9.38705061355965,0.505973199999971,0.638911300000473,"CR","BR",3,1.095,225613,NA
10,44,2,"B",0,"big","up",0.0347,"left","left",0.9325,204.29415703448,-12.4934,9.4435,0.663454375636048,16.0888017623718,1,16.7954029562917,0.370952799999941,0.488741199999822,"hit","TL",4,1.0117,230463,NA
10,45,2,"B",0,"small","down",0.0347,"left","left",1.5664,63.2185927134687,-11.7931,-8.9691,0.209219229651154,15.4711227530196,1,9.45863260407848,0.854739800000061,0.935282899999947,"hit","BR",4,1.3783,234546,NA
10,46,2,"B",90,"small","down",0.0347,"right","right",2.2329,91.7508569688447,11.9964,-9.1046,0.104680968138117,20.4576982930286,1,6.74471998651758,0.471800599999369,0.822234599999319,"CR","TL",4,0.9442,239629,NA
10,47,2,"B",0,"small","up",0.0347,"left","left",1.8163,62.7076395930044,-11.9738,9.195,0.196737863790506,16.7117324002647,1,8.31211502217865,0.438569699999789,0.521424499999739,"hit","BR",4,1.1122,244946,NA
10,48,2,"B",90,"big","down",0.0347,"right","right",0.8842,70.1150789770938,11.7479,-8.4043,0.646883144657803,14.5875236779466,1,16.3368606540132,0.321924500000023,0.405075699999543,"CR","TL",4,0.9243,250113,NA
10,49,3,"B",0,"big","down",0.0347,"right","left",2.0168,179.438122768497,11.5898,-8.3139,0.799401860334104,30.6756737749614,0,7.07226758478652,0.285975300000246,0.408676400000331,"miss","BL",1,0.892,262178,NA
10,50,3,"B",0,"small","down",0.0347,"left","left",0.9837,91.0020268538014,-11.8383,-8.9691,0.164667175487428,15.613149003947,1,15.0978084380161,0.37259610000001,0.469658900000468,"hit","BR",4,1.0616,267229,NA
10,51,3,"B",90,"big","down",0.0347,"right","right",1.3504,45.3294499048859,12.2675,-8.8109,0.327588876077057,15.4200727792755,1,11.1843941966542,0.338503400000263,0.435125400000288,"CR","BL",3,1.342,271512,NA
10,52,3,"B",90,"small","mid",0.0347,"right","right",2.2335,68.3168456719857,14.9334,-0.0678,0.0950338806362205,17.5175923641119,1,6.68601506987536,0.355658599999515,0.43814360000033,"CR","TL",4,1.041,276445,NA
10,53,3,"B",0,"big","mid",0.0347,"left","left",0.9488,123.055753992488,-14.346,0.3163,0.726478027569805,14.4778109722023,1,15.1232511649669,0.505841200000759,0.555766400000721,"hit","BL",4,0.946,281961,NA
10,54,3,"B",90,"big","mid",0.0347,"left","right",1.9668,149.187184839921,-14.3234,-0.497,0.839540284902181,29.7747864507449,0,7.28693079825706,0.438900799999828,0.539475699999457,"FA","-1",0,1.0273,285995,NA
10,55,3,"B",0,"big","mid",0.0347,"right","left",1.9668,78.2399164160701,14.4815,0.1356,0.53588644901945,27.1500635833252,0,7.36326598795616,0.621224299999994,0.701971199999207,"miss","-1",0,0.928,291329,NA
10,56,3,"B",90,"small","down",0.0347,"right","right",2.5831,108.944517123752,11.7479,-9.0594,0.259015421470539,23.1548729791408,1,5.74327076937357,0.771468200000527,1.13608060000024,"CR","TR",2,1.0443,296561,NA
10,57,3,"B",0,"small","up",0.0347,"left","left",2.0329,50.0388420325886,-12.1094,9.0143,0.110294216145641,16.1619982755679,1,7.42608209891737,0.421476999999868,0.586057600000458,"hit","TR",1,1.1597,302529,NA
10,58,3,"B",0,"small","down",0.0347,"left","left",1.2333,110.051488082081,-12.1094,-9.0143,0.110294216145641,16.0328694919456,1,12.2404602141787,0.485881900000095,0.57252359999984,"hit","BL",4,0.8596,307961,NA
10,59,3,"B",0,"big","up",0.0347,"left","left",0.9668,80.3451219003753,-12.4257,8.0654,1.02698382255515,15.2550960615231,1,15.323041365743,0.468677699999716,0.555715299999974,"hit","BL",4,1.0273,312296,NA
10,60,3,"B",0,"small","mid",0.0347,"left","left",1.4658,73.5641215189141,-15.0012,-0.2033,0.203332274093088,15.1706017596584,1,10.2352336787565,0.719244699999763,0.804069899999377,"hit","BR",4,1.0789,316427,NA
10,61,3,"B",0,"big","down",0.0347,"right","left",1.8502,77.9173539255484,12.4483,-8.9465,0.451435690468541,16.8344381457048,0,8.28526895147185,0.488382000000456,1.00201170000037,"miss","TL",3,1.14,321112,NA
10,62,3,"B",90,"small","up",0.0347,"right","right",1.3831,169.000456756817,12.0868,9.1046,0.135924818912899,17.2521154257325,1,10.9411288477769,0.388319799999408,0.405912799999896,"CR","TR",4,1.048,326445,NA
10,63,3,"B",90,"big","mid",0.0347,"right","right",1.2167,143.7464293732,15.8597,0.3389,0.924042888826689,16.2436922909669,1,13.0376076527379,0.688377200000104,0.752344399999856,"CR","TR",3,1.0941,331112,NA
10,64,3,"B",90,"big","down",0.0347,"right","right",1.2659,53.0140394091318,10.7087,-8.6754,1.33152043049172,14.6847939752879,1,10.8865855003996,0.302043599999706,0.57144419999986,"CR","TL",3,0.946,335761,NA
10,65,3,"B",0,"small","mid",0.0347,"right","left",1.3173,141.560218882296,14.8656,0,0.134393201565929,16.7355586345452,0,11.2848538380156,0.155425500000092,0.48840410000048,"miss","BL",3,1.1071,340111,NA
10,66,3,"B",90,"big","up",0.0347,"right","right",1.5166,304.928346680626,13.8038,7.7039,2.2211408832556,25.9420408294594,1,10.4233031538922,0.821769600000152,0.836055900000247,"CR","BL",4,1.0467,344678,NA
10,67,3,"B",90,"small","up",0.0347,"right","right",1.1831,77.0848887530566,12.2223,8.9013,0.243257700068295,15.2588753013457,1,12.7805676866263,0.485267600000043,0.571432900000218,"CR","TL",3,0.994,349578,NA
10,68,3,"B",0,"big","up",0.0347,"right","left",1.1507,62.9985072034039,12.3127,7.8169,1.22375604688771,14.7031818763918,0,12.6748593366439,0.539445700000215,0.636323900000207,"miss","BR",3,1.1429,353994,NA
10,69,3,"B",90,"small","down",0.0347,"right","right",1.5,127.835367700693,12.019,-8.9465,0.0567980170459355,15.7510977601762,1,9.98853486910039,0.738774599999488,0.805969199999709,"CR","BL",4,1.093,358527,NA
10,70,3,"B",0,"small","up",0.0347,"right","left",1.8503,63.538657192966,11.9964,8.9691,0.0311410082359006,16.4417594468364,0,8.09535148560531,0.435415699999794,0.635365199999796,"miss","BL",1,0.9244,363361,NA
10,71,3,"B",90,"small","mid",0.0347,"right","right",1.3669,106.331188929422,15.1593,-0.1581,0.224471802679596,17.2552755825934,1,11.0912635481776,0.388415599999462,0.488908499999525,"CR","BL",3,0.943,368378,NA
10,72,3,"B",90,"big","up",0.0347,"right","right",1.8663,321.7972158134,10.4827,10.0535,1.84713857606766,27.5504154838461,1,7.78265204959725,1.10457609999958,1.12191419999999,"CR","TR",3,1.146,372928,NA
10,73,4,"B",0,"small","mid",0.0347,"left","left",1.6169,119.553164274489,-15.2045,-0.0904,0.223566464408482,18.0390955944429,1,9.40356100645332,0.405494399999952,0.791962699999203,"hit","BL",4,1.2057,390226,NA
10,74,4,"B",90,"small","mid",0.0347,"right","right",1.1338,97.0195424680151,15.2497,-0.0678,0.258708428331984,15.5814375800891,1,13.4497147620969,0.404021499999544,0.504702499999439,"CR","TL",3,0.9616,395394,NA
10,75,4,"B",90,"small","down",0.0347,"right","right",1.5672,120.710927460236,12.019,-9.0594,0.0623985878789877,19.8442179037896,1,9.60345507563236,0.605750699999589,0.669469299999946,"CR","BR",3,0.9571,399728,NA
10,76,4,"B",0,"small","up",0.0347,"right","left",1.3338,189.930901762356,12.0868,9.1046,0.135924818912899,18.8442465014279,0,11.3450367617859,0.602159900000515,0.621790500000316,"miss","TR",3,1.1586,404594,NA
10,77,4,"B",90,"small","up",0.0347,"right","right",1.5841,275.578487046184,12.0868,9.0143,0.0879399491721545,18.5581197849199,1,9.51854809783327,0.821508099999846,0.852435499999956,"CR","TL",3,1.3455,409427,NA
10,78,4,"B",0,"big","down",0.0347,"left","left",1.6504,82.7627388908997,-9.805,-9.0368,2.19533448271678,13.5624751457097,1,8.07935773957005,0.988009599999714,1.05583860000024,"hit","BR",3,0.9263,414694,NA
10,79,4,"B",90,"small","down",0.0347,"right","right",1.6845,308.120257628743,12.0416,-8.9465,0.0677862393207179,28.6481480975812,1,8.90533163782441,0.436806900000192,0.570445800000016,"CR","TL",3,1.0283,419411,NA
10,80,4,"B",90,"small","mid",0.0347,"right","right",0.9509,106.857649624611,14.9786,0.113,0.114975833154141,15.1757366356408,1,15.7522507883411,0.339456500000779,0.38947619999999,"CR","BR",4,1.0282,424260,NA
10,81,4,"B",90,"big","up",0.0347,"right","right",0.8504,126.28382055197,10.3924,7.6361,2.10822455195349,13.2617040139725,1,15.1653006945674,0.352487199999814,0.420104799999535,"CR","TL",4,0.9586,428577,NA
10,82,4,"B",90,"big","down",0.0347,"right","right",0.8165,139.41635873177,10.302,-8.4269,1.79212005137642,13.4122998067701,1,16.2998547919343,0.373503800000435,0.437189899999794,"CR","TR",4,0.9123,432527,NA
10,83,4,"B",0,"big","down",0.0347,"right","left",1.184,129.457450811001,10.5731,-9.4209,1.48767931649123,18.1414156473529,0,11.9610208365738,0.704600100000789,0.735462600000574,"miss","BL",3,0.9077,436393,NA
10,84,4,"B",90,"big","down",0.0347,"right","right",1.0824,163.722762599677,12.3805,-10.3246,1.37815393460784,18.8086320115844,1,14.893040406955,0.372270500000013,0.386130400000184,"CR","BR",4,1.0959,440626,NA
10,85,4,"B",90,"big","up",0.0347,"right","right",1.2999,202.191296890985,11.5672,7.2973,1.75690245884875,15.3769974812494,1,10.5214439600555,0.656002800000351,0.68837160000021,"CR","BR",3,0.945,445145,NA
10,86,4,"B",90,"big","mid",0.0347,"right","right",1.1506,81.4161826629082,14.4589,0.2937,0.615625288866095,14.5576414235996,1,12.5691254493614,0.672177099999317,0.753774599999815,"CR","BL",4,0.9734,449727,NA
10,87,4,"B",90,"small","up",0.0347,"right","right",1.2509,99.4755795324863,12.1546,8.7657,0.280652288314529,16.3094572421781,1,11.9796095361882,0.385891400000219,0.436316799999986,"CR","BR",2,0.9607,453994,NA
10,88,4,"B",0,"big","mid",0.0347,"right","left",1.4843,56.6454401672712,14.3234,0.0678,0.679989933963046,14.4774959984465,0,9.64979248281949,0.785050099999353,0.854721699999573,"miss","TL",1,0.943,458543,NA
10,89,4,"B",0,"small","up",0.0347,"left","left",1.6174,76.4868608894672,-11.906,9.2176,0.237000763773346,15.5440906939462,1,9.30959013806793,0.423308200000065,0.486252699999568,"hit","TR",4,1.1753,463211,NA
10,90,4,"B",0,"big","mid",0.0347,"left","left",0.8166,87.5759363532422,-13.3519,0.4518,1.70888198290526,13.4461297931853,1,16.3591780394085,0.3715258000002,0.42160100000001,"hit","BL",4,1.0743,468144,NA
10,91,4,"B",0,"small","down",0.0347,"left","left",1.1674,106.319960854115,-12.019,-9.0594,0.0623985878789877,19.8901207879451,1,12.892940539961,0.0900718000002598,0.523473899999772,"hit","BL",1,1.1117,472377,NA
10,92,4,"B",0,"small","mid",0.0347,"left","left",1.1335,143.158979272821,-15.0915,-0.0452,0.102073331945358,16.039964139899,1,13.3137270086084,0.40454679999948,0.454563299999791,"hit","TR",3,1.0433,476794,NA
10,93,4,"B",0,"small","down",0.0347,"left","left",0.8493,121.887026872859,-11.7705,-9.0594,0.237082829924303,15.4586732251199,1,17.4880098993736,0.337300700000014,0.419186199999785,"hit","BR",4,1.0616,481108,NA
10,94,4,"B",0,"big","up",0.0347,"left","left",1.1986,117.184150020209,-10.5279,9.1724,1.48213815079257,14.3432089017213,1,11.6492299074595,0.685844499999803,0.73525569999947,"hit","TR",4,0.9137,485159,NA
10,95,4,"B",0,"big","up",0.0347,"left","left",1.2164,178.597916511197,-11.2057,9.6468,1.02436551626943,17.089410851039,1,12.1554221602738,0.652800099999695,0.822438899999725,"hit","BR",4,0.9107,489610,NA
10,96,4,"B",90,"big","mid",0.0347,"right","right",1.1833,55.7875732880686,13.0808,0.1356,1.92395084749507,13.1997946326796,1,11.0552622501082,0.439601000000039,0.621664500000406,"CR","BL",3,0.7595,493878,NA
10,97,5,"B",90,"small","up",0.0347,"right","right",2.2668,101.301065831216,11.8609,8.9013,0.170600420333107,22.9945751560741,1,6.54211091943988,0.501676299999417,1.63821310000003,"CR","TL",3,1.1107,554859,NA
10,98,5,"B",90,"small","mid",0.0347,"right","right",1.3173,102.256112473197,15.1819,0,0.181896304783733,16.5701061580056,1,11.52483987733,0.356569200000195,0.419551900000442,"CR","BR",4,0.8743,560376,NA
10,99,5,"B",90,"small","mid",0.0347,"right","right",2.5998,82.4780319894522,15.2045,-0.1356,0.245336565805139,15.25929333468,1,5.84847966108346,1.8689873000003,1.93833840000025,"CR","BR",2,1.247,570058,NA
10,100,5,"B",0,"small","up",0.0347,"left","left",1.1332,89.5696566858452,-12.0642,8.9917,0.0647251732413868,15.6434813071561,1,13.2775814030183,0.45433839999987,0.554000300000553,"hit","BL",4,0.994,576242,NA
10,101,5,"B",0,"small","down",0.0347,"left","left",2.167,47.4669376866456,-12.2449,-9.1046,0.266330907438775,15.3931605461146,1,7.04136427981203,0.585456400000112,1.38918480000029,"hit","TR",4,0.9233,580710,NA
10,102,5,"B",0,"small","down",0.0347,"left","left",1.9511,55.1571899186581,-12.132,-9.195,0.235444579708651,16.209645455843,1,7.80222505474364,1.05262649999986,1.17166629999974,"hit","BR",4,1.4243,585941,NA
10,103,5,"B",90,"big","down",0.0347,"right","right",2.7352,111.818975426741,11.6349,-9.0594,0.369871180145481,14.8374000272698,1,5.39128474277095,2.21958509999968,2.26959590000024,"CR","TR",3,1.0243,591559,NA
10,104,5,"B",0,"big","down",0.0347,"left","left",2.366,71.3989493100485,-12.7419,-8.8787,0.751799146188332,16.4512940422518,1,6.56397662909085,0.708519700000579,1.93604700000014,"hit","TL",4,1.3451,597657,NA
10,105,5,"B",0,"small","mid",0.0347,"left","left",2.6494,80.5154824198215,-15.1819,-0.1807,0.256421681094671,15.75540910408,1,5.7307064564003,0.654665799999748,1.87113959999988,"hit","BL",4,1.1117,603609,NA
10,106,5,"B",0,"big","up",0.0347,"left","left",0.9329,95.6457862464731,-13.5327,9.0594,1.53382442813465,17.0675033451265,1,17.4563009318465,0.438612400000238,0.639161400000376,"hit","TL",4,1.5621,609508,NA
10,107,5,"B",90,"big","mid",0.0347,"right","right",1.0335,61.8442492874998,13.9845,0.5874,1.17313394006607,14.024450259286,1,13.5430922263585,0.37255819999973,0.568442099999629,"CR","BL",4,0.9423,614341,NA
10,108,5,"B",0,"big","mid",0.0347,"left","left",0.9005,98.7474412062821,-13.239,0.1581,1.76811160061263,13.2434175387037,1,14.7032078045339,0.404908600000454,0.505119999999806,"hit","TR",4,1.2747,618459,NA
10,109,5,"B",0,"big","down",0.0347,"left","left",1.2506,99.750464715977,-10.7087,-9.2176,1.30954289317993,15.0764511244369,1,11.2982995824919,0.670366199999989,0.756577000000107,"hit","TR",1,0.8617,622775,NA
10,110,5,"B",90,"small","down",0.0347,"right","right",1.3155,98.1596118552183,12.1771,-8.9465,0.185055858928628,16.7243586343831,1,11.4866688608561,0.403748999999152,0.471849999999904,"CR","BL",4,0.997,627125,NA
10,111,5,"B",90,"small","up",0.0347,"right","right",1.5999,113.432369581127,12.1771,8.9239,0.192807098084871,16.2984342443992,1,9.43620551715852,0.622585600000093,0.804824800000461,"CR","TR",1,1.0603,631777,NA
10,112,5,"B",90,"small","down",0.0347,"right","right",2.3331,167.634690504094,11.9738,-9.2402,0.241594993812029,26.2863663963347,1,6.4825727157121,1.21927899999991,1.23786560000008,"CR","TL",2,0.9931,636575,NA
10,113,5,"B",0,"big","mid",0.0347,"left","left",1.0008,157.554069302846,-14.6397,-0.5196,0.63232091366606,17.0897802838696,1,14.6367032882237,0.272125000000415,0.555218500000592,"hit","TL",2,0.893,642241,NA
10,114,5,"B",90,"big","mid",0.0347,"left","right",1.8501,224.336867479733,-14.843,-0.5874,0.608010719831905,45.2850541915431,0,8.02901916091431,0.335632899999837,0.554732600000534,"FA","-1",0,0.9273,646274,NA
10,115,5,"B",0,"small","up",0.0347,"left","left",1.2165,118.202317928048,-12.1997,8.8787,0.233686575099958,15.7405947350775,1,12.4035363286491,0.53850329999932,0.571730099999513,"hit","TR",4,1.0607,651393,NA
10,116,5,"B",90,"big","up",0.0347,"right","right",1.1843,179.714649272621,12.7419,7.8395,1.3774388701467,25.9400517190656,1,12.632286394492,0.605442799999764,0.623357899999974,"CR","TR",4,1.143,656008,NA
10,117,5,"B",0,"big","up",0.0347,"right","left",1.701,56.1067286910068,12.0642,8.6754,0.330915175167397,15.2743062915615,0,8.7358318955154,0.473123100000521,1.23930290000044,"miss","TR",1,1.062,660474,NA
10,118,5,"B",90,"big","up",0.0347,"left","right",1.5489,59.2470895793268,-11.1379,8.5624,0.966792062084356,14.2373202235311,0,9.06991996767723,0.886073000000579,1.03885989999981,"FA","BL",1,0.9307,665375,NA
10,119,5,"B",0,"small","mid",0.0347,"left","left",1.2833,172.305106835063,-15.0012,0,0.00115944401249557,17.5714984685346,1,11.6896444799434,0.389460799999142,0.489853799999764,"hit","TL",4,1.0949,670191,NA
10,120,5,"B",90,"big","down",0.0347,"right","right",1.0655,70.9872123403456,11.6575,-8.088,0.974206280409969,14.2899010056025,1,13.3168375015853,0.468400599999768,0.65206119999948,"CR","BL",3,0.8956,674708,NA
10,121,6,"B",90,"big","up",0.0347,"left","right",1.9505,258.55789090182,-12.4257,8.5624,0.610468518843004,20.4654783017777,0,7.73661967133455,1.38600270000006,1.50391469999977,"FA","TR",1,1.0236,716440,NA
10,122,6,"B",90,"small","mid",0.0347,"right","right",1.1336,129.118853580181,14.9108,0,0.0892089863731211,14.9212226757562,1,13.1533797793464,0.422136999999566,0.485826799999813,"CR","BR",4,0.8915,721658,NA
10,123,6,"B",90,"small","mid",0.0347,"right","right",0.9997,91.1792831096423,14.9786,0.113,0.114975833154141,15.0999306450266,1,14.9840054248813,0.355200800000603,0.42209770000045,"CR","TR",3,1.1441,726023,NA
10,124,6,"B",0,"small","up",0.0347,"left","left",1.5172,100.8039240669,-12.1094,9.1724,0.204161693253068,15.8058557915228,1,10.0125435552196,0.439535099999375,0.504156699999839,"hit","BL",4,1.0263,730407,NA
10,125,6,"B",0,"small","mid",0.0347,"left","left",1.3668,80.5467526840872,-14.9108,0.1581,0.181570939873229,15.0831962127389,1,10.9099791229238,0.653818699999647,0.772673499999655,"hit","TL",4,0.9783,735191,NA
10,126,6,"B",0,"big","mid",0.0347,"left","left",1.6502,50.7903618688211,-12.9001,-0.7455,2.22832600681852,13.1533163195819,1,7.83029530722878,0.455154899999798,0.569436199999473,"hit","TR",4,0.9077,739674,NA
10,127,6,"B",0,"big","down",0.0347,"left","left",1.1005,94.6716064236396,-10.7087,-9.0594,1.29270805407994,14.4425327878029,1,12.7456326656115,0.585442100000364,0.669238299999961,"hit","BR",3,2.1382,744474,NA
10,128,6,"B",0,"big","up",0.0347,"left","left",1.1335,78.4999167069613,-11.0475,8.5624,1.0481721983628,14.3102539950617,1,12.3313609579129,0.605835299999853,0.668657600000188,"hit","BL",4,2.6243,749957,NA
10,129,6,"B",0,"small","down",0.0347,"left","left",2.1834,153.230990353213,-12.0416,-9.1724,0.177342263946032,19.09639484254,1,6.93282722580906,0.554782100000011,0.78765199999998,"hit","BR",3,1.0914,755856,NA
10,130,6,"B",90,"big","down",0.0347,"right","right",0.8514,105.023411559336,11.2735,-8.2687,1.03084477994679,15.3273634437759,1,16.4211017019124,0.372470499999508,0.404840799999874,"CR","BR",4,1.0764,761473,NA
10,131,6,"B",90,"big","down",0.0347,"right","right",1.2006,174.664492239604,14.0071,-8.6754,2.03319020869645,16.8005698237213,1,13.7235695652089,0.722346100000323,0.804801299999781,"CR","BR",1,1.1724,765540,NA
10,132,6,"B",0,"big","down",0.0347,"left","left",1.3169,130.3573057276,-11.3186,-7.478,1.66756262358415,21.16668493347,1,10.3012893382765,0.485373900000013,0.587290499999654,"hit","BR",4,1.3124,770257,NA
10,133,6,"B",0,"small","mid",0.0347,"left","left",0.9011,93.6944514448316,-15.0689,0.0904,0.113659989243795,15.1979081331651,1,16.7229028205894,0.338506099999904,0.439474699999664,"hit","BL",3,1.0067,775223,NA
10,134,6,"B",0,"big","mid",0.0347,"left","left",0.8846,141.115044416799,-14.4815,0.4293,0.673093876868685,14.510508355953,1,16.3774643658628,0.489225399999668,0.543066299999737,"hit","TR",4,0.9763,779375,NA
10,135,6,"B",90,"big","mid",0.0347,"right","right",1.1002,65.5215378727479,13.9393,-0.2033,1.07998273012039,13.959012171758,1,12.6707101431891,0.384812999999667,0.487310699999398,"CR","TL",1,1.3744,783474,NA
10,136,6,"B",90,"small","up",0.0347,"right","right",2.1166,156.417543873472,11.8609,9.0368,0.143938620220243,28.9139536028857,1,7.04495313755799,0.523437400000148,0.569430800000191,"CR","TR",2,1.4127,788091,NA
10,137,6,"B",90,"small","up",0.0347,"right","right",1.2669,92.793424006265,12.1997,8.9917,0.199912192328193,15.8327254816127,1,11.9622884008665,0.505911999999626,0.537675599999602,"CR","BL",1,1.091,793958,NA
10,138,6,"B",90,"big","mid",0.0347,"right","right",0.9502,112.721220738504,15.1141,-0.1807,0.213750282179627,15.2114563733501,1,15.9079292868997,0.422207700000399,0.472463900000548,"CR","BR",3,1.1938,798458,NA
10,139,6,"B",0,"small","up",0.0347,"left","left",1.1996,134.026797877166,-11.906,8.8109,0.211137049480439,15.0597035727979,1,12.3470473925508,0.405606599999373,0.569406199999321,"hit","BL",4,0.8788,802740,NA
10,140,6,"B",0,"big","up",0.0347,"left","left",1.2159,106.242799096297,-10.4376,7.7039,2.03004706681009,13.1826714967262,1,10.6693335453479,0.638360899999498,0.788246099999924,"hit","TR",4,0.942,806957,NA
10,141,6,"B",0,"small","down",0.0347,"left","left",1.3331,170.078667352485,-11.9738,-8.8109,0.190882299730622,16.6613590940176,1,11.1519572655105,0.436029099999359,0.572792799999661,"hit","TR",4,0.8935,811256,NA
10,142,6,"B",90,"small","down",0.0347,"right","right",1.2339,119.720396843972,11.9964,-9.0368,0.037017614878776,15.242875777291,1,12.1725372313431,0.469382600000245,0.519589100000303,"CR","TL",4,0.9224,815724,NA
10,143,6,"B",90,"small","down",0.0347,"right","right",1.1335,130.515679905437,12.019,-8.9465,0.0567980170459355,15.9312632239365,1,13.2190792350521,0.404570900000181,0.454356199999893,"CR","BR",4,1.0587,820124,NA
10,144,6,"B",90,"big","up",0.0347,"right","right",0.8996,147.04353728378,10.2794,8.0202,1.98001139217537,13.193103172418,1,14.4938945300873,0.388029199999437,0.468712500000038,"CR","TL",4,1.0284,824658,NA
10,145,7,"B",90,"small","mid",0.0347,"left","right",1.8502,67.8515561594668,-15.0012,-0.0452,0.0451990886302828,15.1703173198928,0,8.10776888370125,1.12188500000047,1.22234440000011,"FA","TL",2,1.2586,861689,NA
10,146,7,"B",0,"small","up",0.0347,"left","left",1.2665,84.8962872221619,-12.0416,9.0143,0.0439669842577994,16.0860918640104,1,11.8764254775875,0.419633299999987,0.522516900000483,"hit","BR",4,1.0605,867040,NA
10,147,7,"B",0,"big","down",0.0347,"left","left",1.4669,85.6021357332927,-11.0249,-8.1558,1.28976046387961,18.842859135242,1,9.34872226202162,0.355800600000293,0.487960100000237,"hit","TL",1,0.9724,871706,NA
10,148,7,"B",90,"big","mid",0.0347,"right","right",1.0504,84.7471391911862,16.0856,0.0904,1.08933544469339,16.1480899704582,1,15.3134500622571,0.455028900000798,0.555177600000206,"CR","TL",2,2.0067,876490,NA
10,149,7,"B",90,"big","down",0.0347,"right","right",1.2,167.666483891379,13.126,-10.4827,1.86183254834443,19.9238076787048,1,13.9982098062498,0.537992300000042,0.55571830000008,"CR","BL",4,1.0604,881690,NA
10,150,7,"B",90,"small","up",0.0347,"right","right",2.0167,148.911368716558,12.0416,8.8787,0.128234600008817,18.8026331361532,1,7.41853481652726,0.655770200000006,0.688158799999655,"CR","BR",2,1.2097,886290,NA
10,151,7,"B",0,"big","up",0.0347,"left","left",1.3336,69.0114929328022,-10.4376,8.3365,1.69749432362791,13.777909932239,1,10.016594871857,0.769430199999988,0.919468400000369,"hit","BR",2,0.9773,891656,NA
10,152,7,"B",0,"big","mid",0.0347,"left","left",0.8833,210.028799408084,-13.3519,-0.5648,1.7421591143661,13.4288464205826,1,15.1294702051238,0.35435249999955,0.522421699999541,"hit","TR",4,0.8577,896207,NA
10,153,7,"B",0,"small","mid",0.0347,"left","left",1.5341,131.705188485057,-14.843,-0.0452,0.163358503284597,15.7292066562071,1,9.67558799853968,0.456531300000279,0.506703000000016,"hit","BL",4,1.3117,900289,NA
10,154,7,"B",90,"small","up",0.0347,"right","right",1.2334,230.957549973369,12.0642,8.9691,0.0712505501496951,16.5530204386628,1,12.1880314159291,0.537658100000044,0.568751200000406,"CR","TL",3,1.0076,905373,NA
10,155,7,"B",90,"small","mid",0.0347,"right","right",2.0671,200.590805288262,14.956,-0.2485,0.252382612080999,17.8255986066484,1,7.23608777677971,0.735079000000042,0.772046899999623,"CR","TL",4,0.9599,909757,NA
10,156,7,"B",0,"small","mid",0.0347,"left","left",1.3491,179.118409213266,-15.0238,-0.0904,0.0934376231193325,15.3721846350203,1,11.1364236717021,0.802655999999843,0.837492499999826,"hit","BL",4,1.0093,914922,NA
10,157,7,"B",0,"small","down",0.0347,"right","left",1.6173,173.969730775073,12.019,-9.1046,0.10633088892666,19.4586778293247,0,9.32311831210825,0.952749699999913,0.989203400000406,"miss","TR",2,1.0892,919623,NA
10,158,7,"B",0,"big","up",0.0347,"right","left",1.5833,46.7031396821577,11.1605,7.8621,1.41410066122797,14.0196307407374,0,8.62250971617981,0.888913900000261,1.03907330000038,"miss","TL",2,0.945,924473,NA
10,159,7,"B",90,"small","down",0.0347,"right","right",1.2504,85.7616056344915,12.2675,-9.0368,0.270039584120526,15.9558987824182,1,12.1853283680186,0.485304199999518,0.589419199999611,"CR","BL",4,0.99,929139,NA
10,160,7,"B",0,"small","up",0.0347,"right","left",1.7665,70.4146098013259,12.019,8.9465,0.0567980170459355,15.8621612337845,0,8.48203682871967,0.637524300000223,0.819256000000678,"miss","BL",2,0.8609,933621,NA
10,161,7,"B",90,"big","up",0.0347,"left","right",0.967,92.7330263392608,-11.4994,7.7039,1.38941365233527,14.0010047302917,0,14.314381327794,0.45239760000004,0.520721000000776,"FA","TL",4,0.943,938588,NA
10,162,7,"B",0,"big","mid",0.0347,"left","left",0.9181,139.75843284113,-14.4138,0.0678,0.590140254191393,15.1866154158814,1,15.6991233041697,0.406203900000037,0.538750700000492,"hit","BR",4,0.9086,942840,NA
10,163,7,"B",90,"small","down",0.0347,"right","right",1.2835,104.820039940227,11.9964,-9.1724,0.172433077543169,15.9706418661441,1,11.7653779197971,0.558515300000181,0.637976900000467,"CR","BR",3,0.9244,947007,NA
10,164,7,"B",0,"small","down",0.0347,"right","left",1.3838,111.827878102582,11.8383,-9.1046,0.192623003245698,16.8915273681776,0,10.792155175264,0.104208800000379,0.770201400000587,"miss","TL",3,0.893,951455,NA
10,165,7,"B",90,"big","down",0.0347,"left","right",1.617,132.231853705945,-11.6575,-9.2628,0.431662344448496,21.0150757760866,0,9.20790388375949,0.0747453000003588,0.0748437000002014,"FA","-1",0,1.1263,955972,NA
10,166,7,"B",90,"big","mid",0.0347,"right","right",1.501,108.611601673916,14.9334,0.0904,0.112268703334064,14.977790053978,1,9.94896063692209,0.752037399999608,0.88495950000015,"CR","BL",2,1.1767,961056,NA
10,167,7,"B",90,"big","up",0.0347,"right","right",0.8671,120.112394828056,11.5446,8.6754,0.559289115246609,14.5906465261606,1,16.6539154408577,0.401798900000358,0.489285600000585,"CR","BR",4,1.344,966072,NA
10,168,7,"B",0,"big","down",0.0347,"right","left",0.9334,88.8490640998886,10.0987,-8.698,1.92516885002273,13.3827207054887,0,14.279796839404,0.486331400000381,0.589386500000728,"miss","TR",4,0.946,970623,NA
10,169,8,"B",90,"big","up",0.0347,"left","right",2.3835,148.226805574537,-10.7538,8.2235,1.46827000035365,32.7127254933969,0,5.67988068710257,0.705849199999648,0.919540599999891,"FA","TL",1,0.8421,987272,NA
10,170,8,"B",0,"big","down",0.0347,"left","left",1.5499,87.6992734231763,-11.8157,-9.1046,0.211947922235988,17.095297294211,1,9.6242002018621,0.5544775999997,0.735932200000207,"hit","TL",4,1.045,992638,NA
10,171,8,"B",0,"big","up",0.0347,"left","left",1.0002,79.5597420396145,-12.7871,8.7206,0.835265544564446,15.8112133844259,1,15.4753170481438,0.552029800000128,0.639302499999758,"hit","BL",3,1.3567,997571,NA
10,172,8,"B",0,"big","mid",0.0347,"left","left",0.7166,137.42985576381,-16.4922,-0.1807,1.50314393493933,16.6070502730867,1,23.0173877108035,0.388451100000566,0.438684800000374,"hit","TL",3,1.0616,1002071,NA
10,173,8,"B",90,"small","up",0.0347,"right","right",1.6326,129.157826940288,11.9286,8.7883,0.223377541314234,16.1589484876694,1,9.0752320194138,0.43838980000055,0.505802900000162,"CR","BR",4,1.3137,1005987,NA
10,174,8,"B",90,"small","down",0.0347,"right","right",1.3322,114.070054591321,12.1997,-9.0143,0.200245845018698,16.716770063566,1,11.385817122935,0.66858240000056,0.755838699999913,"CR","TL",4,0.9289,1011171,NA
10,175,8,"B",90,"big","mid",0.0347,"right","right",1.234,145.186880649805,13.4197,-0.8359,1.78775070774735,13.732501234313,1,10.8958562546858,0.704906599999958,0.787530900000093,"CR","TR",4,0.9587,1015772,NA
10,176,8,"B",90,"small","mid",0.0347,"right","right",1.2671,129.952522055767,15.1141,-0.1581,0.195020853364858,16.6096154232557,1,11.9285039548347,0.571985599999607,0.654857900000025,"CR","TR",4,0.9617,1020106,NA
10,177,8,"B",90,"small","down",0.0347,"right","right",1.0666,101.198680351113,12.0416,-8.9917,0.0424214792167513,15.700074139089,1,14.0895899613721,0.304223000000093,0.454789499999606,"CR","TR",4,0.9281,1024472,NA
10,178,8,"B",0,"big","up",0.0347,"right","left",1.4678,74.7499710242071,10.415,8.5172,1.65693054926034,14.2749249193644,0,9.16651568078387,0.588600000000042,0.670132700000067,"miss","TR",3,1.1412,1028706,NA
10,179,8,"B",0,"small","down",0.0347,"left","left",1.3502,57.84615134713,-11.7253,-9.1046,0.293944194867228,18.4838582990899,1,10.9945073322961,0.451878400000169,0.605763499999739,"hit","BL",4,1.0213,1033454,NA
10,180,8,"B",90,"small","up",0.0347,"left","right",2.2169,87.8776833078735,-11.7479,8.9917,0.252242001237524,25.8372673189064,0,6.67330356456179,0.4694614,0.588720900000226,"FA","-1",0,1.0096,1038071,NA
10,181,8,"B",0,"small","down",0.0347,"left","left",1.1837,95.7963376385766,-11.906,-8.8109,0.211137049480439,15.4773715895472,1,12.5135150619454,0.538057599999775,0.588133299999754,"hit","BL",4,0.993,1043438,NA
10,182,8,"B",90,"big","up",0.0347,"right","right",1.2329,97.1759888205842,12.4708,9.1724,0.501411779722583,15.5985038421977,1,12.5562232409914,0.368682799999988,0.556077000000187,"CR","TL",4,1.0297,1047856,NA
10,183,8,"B",0,"big","down",0.0347,"right","left",1.1333,98.3412702573066,10.4827,-7.9976,1.81848226760743,13.2283766265821,0,11.6339376745399,0.705750600000101,0.7693390000004,"miss","TL",2,0.9602,1052356,NA
10,184,8,"B",0,"small","up",0.0347,"right","left",1.6657,73.0035277354679,12.1771,9.1724,0.247186114626349,15.7731774607949,0,9.1524678677748,0.552216600000065,0.65183800000068,"miss","TL",1,0.98,1056587,NA
10,185,8,"B",0,"small","up",0.0347,"left","left",1.0833,223.413603661385,-11.7705,8.9917,0.229663464385753,17.4226081748352,1,13.6736225947983,0.337927399999899,0.419507399999929,"hit","TR",4,0.9283,1061570,NA
10,186,8,"B",90,"big","down",0.0347,"right","right",1.0497,204.637229250633,12.516,-7.9976,1.12742097070893,19.2911365695891,1,14.1504253947693,0.605181199999606,0.635373699999946,"CR","BR",4,1.0125,1065820,NA
10,187,8,"B",0,"small","mid",0.0347,"right","left",2.5667,70.7939133460678,14.9334,-0.0678,0.0950338806362205,22.6597363671642,0,5.81807904109478,0.304475799999636,0.672290599999542,"miss","-1",0,1.2783,1070022,NA
10,188,8,"B",90,"small","mid",0.0347,"left","right",1.4168,94.742670781874,-14.843,-0.0452,0.163358503284597,14.9656487813411,0,10.4762014580076,0.721314899999925,0.82126739999967,"FA","BL",4,0.9724,1076204,NA
10,189,8,"B",90,"big","mid",0.0347,"right","right",0.9666,82.1948326350297,13.623,0.1807,1.38877004189052,13.6980818484695,1,14.0944401347012,0.405003299999407,0.454976499999248,"CR","TL",4,0.9616,1080938,NA
10,190,8,"B",0,"big","mid",0.0347,"left","left",1.0335,130.492347969538,-13.5327,-0.0678,1.46889202060508,13.9981434290569,1,13.0948052243419,0.422397399999682,0.435296200000266,"hit","TL",4,1.2743,1085005,NA
10,191,8,"B",90,"big","down",0.0347,"right","right",0.8348,109.625767723973,10.5731,-7.478,2.08627591073104,13.1917440012338,1,15.5131389686216,0.336413400000311,0.388003300000491,"CR","BL",4,0.8905,1089654,NA
10,192,8,"B",0,"small","mid",0.0347,"left","left",1.8665,120.172058694954,-15.0463,0.2033,0.208543530530165,16.0941519465271,1,8.06215424767361,0.635202899999967,0.704850000000079,"hit","TL",4,1.0586,1093520,NA
11,1,1,"A",90,"small","up",0.04285,"left","left",1.7673,89.0214869761739,-11.8383,8.9013,0.189478223359038,16.0084199255678,1,8.3809207615773,0.736332999998922,0.804296199999953,"CR","BR",2,1.1556,0,NA
11,2,1,"A",90,"small","mid",0.04285,"left","left",1.6831,103.511797647768,-14.956,-0.0452,0.0630856067583482,19.4137457065288,1,8.88586378963666,0.692149499998777,0.771291999999448,"CR","BL",2,0.8082,5297,NA
11,3,1,"A",0,"small","up",0.04285,"right","right",1.7005,99.2790751132891,11.9964,8.9013,0.0987748998391724,15.3382498683258,1,8.78433347882369,0.719387600000118,0.770775500001037,"hit","BR",2,1.0243,10130,NA
11,4,1,"A",0,"small","mid",0.04285,"left","right",2.4338,97.7985182274306,-14.7526,-0.1356,0.282060972471673,18.5099813308407,0,6.06193829610035,1.30220510000072,1.7365766999992,"miss","TR",2,0.6934,20445,NA
11,5,1,"A",90,"big","up",0.04285,"left","left",1.849,44.5555080407615,-10.4601,7.6587,2.04209963957796,13.082251590847,1,7.01132483232895,0.735328900000241,0.852540699999736,"CR","BL",2,1.0627,25713,NA
11,6,1,"A",0,"big","down",0.04285,"left","right",1.6163,69.9682380718132,-10.2794,-8.4043,1.82080611002987,13.3233573142347,0,8.21464111950908,1.00564850000046,1.1884312000002,"miss","BL",2,0.8107,30762,NA
11,7,1,"A",90,"big","up",0.04285,"left","left",2.0837,92.0440001367458,-10.3472,9.2854,1.67726702553641,14.1865612096959,1,6.67222678752815,1.45424569999886,1.52241929999946,"CR","BR",2,1.0254,35331,NA
11,8,1,"A",0,"big","mid",0.04285,"left","right",1.6336,74.4178602013859,-13.7134,-0.1807,1.29922338872807,13.7200153299433,0,8.39551096513502,1.08744790000128,1.18792120000035,"miss","TR",2,0.7742,40779,NA
11,9,1,"A",0,"small","mid",0.04285,"right","right",1.8492,70.7459457251087,15.0012,-0.0226,0.0226218398028459,15.2592854377761,1,8.1122252712309,0.768738599999779,0.835416199999599,"hit","TR",2,0.7803,45530,NA
11,10,1,"A",0,"small","down",0.04285,"right","right",1.9837,70.4818381767596,12.0868,-9.1272,0.153990595358183,16.1976840549811,1,7.63501386429421,1.0214347000001,1.30266219999976,"hit","BL",1,0.8764,50497,NA
11,11,1,"A",90,"small","down",0.04285,"left","left",1.6835,54.570601424714,-11.906,-8.9917,0.0943288114151297,15.6231450821225,1,8.86255107446383,0.721247999999832,0.871678199999224,"CR","TL",2,0.9295,55695,NA
11,12,1,"A",90,"small","down",0.04285,"left","left",2.3668,59.8261947908809,-11.8834,-8.9465,0.128254424532545,15.2570417806127,1,6.2846050096937,1.10451060000014,1.35519540000132,"CR","TR",2,0.8395,60545,NA
11,13,1,"A",90,"big","down",0.04285,"left","left",1.8667,66.3247124154718,-11.4768,-9.8953,1.03700883795979,15.2912340726527,1,8.11790364047112,1.17057640000166,1.27093640000021,"CR","TR",2,0.7097,65898,NA
11,14,1,"A",0,"big","down",0.04285,"right","right",1.7666,96.6412181231116,11.4994,-7.0036,2.05825577156893,13.6832479571899,1,7.62143796470025,1.08585359999961,1.17208050000045,"hit","TL",2,0.8608,70713,NA
11,15,1,"A",0,"small","down",0.04285,"right","right",1.9834,38.9414912941621,11.9286,-9.082,0.108727853093559,15.6115463906794,1,7.55906300461431,1.0861316999999,1.25533400000131,"hit","BL",2,0.8557,75480,NA
11,16,1,"A",90,"big","down",0.04285,"right","left",1.9668,65.4072249434593,10.0535,-8.6528,1.97723875595389,13.3553109997443,0,6.74430126088823,1.40549819999978,1.5057158999989,"FA","BL",2,0.8774,80564,NA
11,17,1,"A",90,"big","mid",0.04285,"left","left",1.1821,91.4065119112428,-13.4875,0.2033,1.52611746221558,13.5617737731411,1,11.4106390560463,0.751780000000508,0.821460400000433,"CR","BR",2,0.9293,85746,NA
11,18,1,"A",90,"small","mid",0.04285,"left","left",2.5337,54.389848586072,-14.7526,-0.0226,0.248383324307416,14.8862430937513,1,5.82259477961795,1.08970960000079,1.40883710000162,"CR","TR",2,0.7566,89996,NA
11,19,1,"A",90,"big","mid",0.04285,"left","left",1.5499,84.4554395432863,-12.9905,-0.6552,2.11364441217128,13.1264941719141,1,8.39209689646938,0.888608100000056,0.97130499999912,"CR","TL",2,0.7276,95430,NA
11,20,1,"A",0,"big","up",0.04285,"right","right",1.6006,69.584984186722,11.3412,7.6135,1.5350042233392,14.1486478720238,1,8.53419986387924,0.988914499999737,1.05502229999911,"hit","TR",1,0.9577,99845,NA
11,21,1,"A",0,"small","up",0.04285,"right","right",2.0836,38.8092120751232,12.2675,8.9013,0.285144794830472,15.4822317409015,1,7.27442853386401,0.9859878999996,1.10490779999964,"hit","TR",1,1.3763,104645,NA
11,22,1,"A",0,"big","mid",0.04285,"left","right",1.5669,101.947618867807,-14.6171,-1.0166,1.08636275442725,17.5732813374236,0,9.35095838235634,0.938594399998692,0.988768999999593,"miss","TL",2,0.7068,110446,NA
11,23,1,"A",90,"small","up",0.04285,"left","left",1.7501,85.0743210146973,-11.8609,8.8787,0.184594211362436,15.0736157313311,1,8.46577734097872,0.871328899998844,0.951990499999738,"CR","TL",2,0.9115,114962,NA
11,24,1,"A",0,"big","up",0.04285,"right","right",1.7337,137.297004053918,12.516,7.6135,1.479376592796,20.7243674239138,1,8.45008609052101,1.05213949999961,1.12153170000056,"hit","TR",1,0.995,119763,NA
11,25,2,"A",0,"big","mid",0.04285,"left","right",1.3665,112.341274047542,-13.1034,-0.4744,1.95501775874225,13.8656569549,0,9.59499621047872,0.603177700000742,0.823307500000737,"miss","BR",2,0.8627,144511,NA
11,26,2,"A",0,"small","up",0.04285,"right","right",2.1,54.8140554849122,11.7705,8.9013,0.249838584216816,15.7161665608186,1,7.0272056692717,0.704535199998645,0.8546568999991,"hit","BL",2,0.7107,148879,NA
11,27,2,"A",90,"small","mid",0.04285,"right","left",1.7168,85.118520966028,15.0238,-0.1581,0.159918414075923,15.6832121471738,0,8.75137455391853,0.95526510000127,1.01841820000118,"FA","BR",2,1.4586,153828,NA
11,28,2,"A",0,"small","up",0.04285,"right","right",1.8849,127.1000883362,11.8609,8.9239,0.15860261857372,18.674021300533,1,7.87475786840947,0.752116999999998,1.06940829999985,"hit","TL",2,0.8724,159344,NA
11,29,2,"A",0,"small","mid",0.04285,"right","right",1.9665,91.2116724568826,14.9786,-0.0678,0.0710843794312689,15.9972889098725,1,7.61691045441733,1.15545889999885,1.23787119999906,"hit","BR",1,0.9137,164446,NA
11,30,2,"A",90,"big","up",0.04285,"left","left",1.4169,141.418544818908,-12.4257,8.1106,0.986041307779075,16.2845532872619,1,10.4722815710892,0.735097500000848,0.802760700000363,"CR","TL",2,0.6931,169562,NA
11,31,2,"A",0,"big","down",0.04285,"right","right",1.6179,155.869256489198,11.0249,-8.2687,1.21881436619334,16.7516039379224,1,8.51783962029101,0.888259399998788,0.971059299999979,"hit","BR",3,0.8926,173811,NA
11,32,2,"A",90,"small","up",0.04285,"left","left",2.7005,108.279049937679,-11.8609,8.8335,0.216975762986971,14.9267106892688,1,5.4762924090622,1.82425019999937,1.92320549999931,"CR","TR",1,0.8954,178463,NA
11,33,2,"A",90,"big","up",0.04285,"right","left",1.5325,43.6896883247118,11.4542,7.3198,1.76658632176916,13.9631006453338,0,8.87027896058533,0.720514299999195,0.989297299998725,"FA","TR",2,0.8444,184193,NA
11,34,2,"A",0,"big","mid",0.04285,"left","right",1.5335,62.9293834058572,-13.0582,-0.1356,1.94648746302024,14.1781844390878,0,8.51583603183848,0.734982199999649,0.972441500000059,"miss","TL",2,1.3631,188811,NA
11,35,2,"A",90,"big","down",0.04285,"left","left",1.4842,59.1926193232073,-10.5053,-8.2461,1.6740294093216,13.3845442009135,1,8.99808544488486,0.822434000001522,0.922736000000441,"CR","BR",2,0.8606,193946,NA
11,36,2,"A",0,"small","down",0.04285,"right","right",1.7493,130.00745675988,11.9964,-9.0143,0.0146963721451947,15.291323642713,1,8.57820343166889,0.819424100000106,0.888456000000588,"hit","TL",2,0.9309,198528,NA
11,37,2,"A",90,"big","mid",0.04285,"left","left",1.7321,83.9894224525692,-13.2164,0.0904,1.78590488437472,13.3194327403736,1,7.630627172959,0.888999400000102,0.952648000000409,"CR","BL",2,0.7951,203445,NA
11,38,2,"A",90,"small","up",0.04285,"left","left",2.0176,134.588355966191,-11.7931,8.9013,0.229258379345472,15.2366144810854,1,7.32326973789529,0.772455599999375,0.985956699998496,"CR","BR",2,0.9255,208212,NA
11,39,2,"A",90,"big","down",0.04285,"left","left",1.9665,56.1151927449952,-10.3924,-8.4269,1.70674243354499,13.4806373791064,1,6.80380917992715,1.10433100000046,1.28509680000025,"CR","BR",1,0.7783,213395,NA
11,40,2,"A",90,"small","mid",0.04285,"right","left",1.6167,93.1311382106424,15.0012,-0.0226,0.0226218398028459,15.3583909982765,0,9.27869406322312,0.788355200000296,0.901823700000023,"FA","TL",1,0.7097,218478,NA
11,41,2,"A",90,"small","down",0.04285,"left","left",1.5499,82.7501213889229,-11.9738,-9.1724,0.174372647031303,15.7655341591923,1,9.73175692225348,0.65314539999963,0.754616399999577,"CR","BL",2,0.9087,223045,NA
11,42,2,"A",0,"big","up",0.04285,"left","right",1.333,157.294271310063,-10.6409,8.698,1.39227410959011,13.9404872084706,0,10.3098855340923,0.839244799999506,0.889305800001239,"miss","TR",2,0.8293,227744,NA
11,43,2,"A",90,"small","down",0.04285,"left","left",2.2495,68.0919281055109,-11.7253,-9.0368,0.277155891904038,16.0898705841542,1,6.58089413455802,0.805608700000448,0.936326200000622,"CR","TR",2,0.892,232044,NA
11,44,2,"A",0,"big","down",0.04285,"right","right",1.7834,50.1310685293977,10.8894,-7.7491,1.67278513606213,13.490385957577,1,7.49417900438091,0.905438000001595,1.03793089999999,"hit","BL",1,0.7901,237428,NA
11,45,2,"A",90,"big","mid",0.04285,"left","left",1.2667,85.4639544997439,-13.2164,-0.0452,1.78418928819947,13.2180563581126,1,10.4338511906735,0.788415900000473,0.851970499999879,"CR","TL",1,0.743,242344,NA
11,46,2,"A",0,"small","down",0.04285,"right","right",1.9501,77.4322645485858,12.132,-8.9691,0.135538847792709,15.9417586286132,1,7.73686111844021,0.787542899999607,0.918638799999826,"hit","BR",2,0.9254,246694,NA
11,47,2,"A",0,"small","mid",0.04285,"right","right",1.8664,51.9960438871897,14.7752,-0.0452,0.229258379345472,15.137199607928,1,7.91648184021094,0.839035799999692,0.935878299998876,"hit","BL",2,0.9451,251813,NA
11,48,2,"A",0,"big","up",0.04285,"right","right",1.4661,45.2925408336674,10.7538,9.082,1.24885355464349,14.6281708703478,1,9.60087986027678,0.772044399998776,0.935398199999327,"hit","TR",2,1.8273,256761,NA
11,49,3,"A",0,"small","up",0.04285,"left","right",1.833,122.109409752888,-12.0416,9.0143,0.0439669842577994,15.7377822743564,0,8.20600598076148,0.971386499999426,1.00248250000004,"miss","TL",1,0.7743,288326,NA
11,50,3,"A",90,"big","mid",0.04285,"left","left",1.4832,70.9448279540165,-13.239,-0.0452,1.76160451934219,13.3022537349519,1,8.92592961038553,0.889270700001362,0.95541410000078,"CR","TL",2,0.7251,293177,NA
11,51,3,"A",90,"big","up",0.04285,"right","left",1.2173,72.7928621422209,11.5446,7.6361,1.43789921512288,13.9860512877224,0,11.3709248420983,0.688213200000973,0.788632900001176,"FA","BL",2,1.0237,297728,NA
11,52,3,"A",0,"small","down",0.04285,"right","right",2.1172,105.483787672544,12.019,-9.1046,0.10633088892666,17.5969358654707,1,7.12190388195241,1.00506189999942,1.38800710000032,"hit","BL",1,0.8087,302311,NA
11,53,3,"A",90,"small","mid",0.04285,"left","left",1.6341,99.6262529629492,-14.9334,-0.0452,0.0804948559880807,15.2470479516932,1,9.1386561290855,0.689954600000419,0.739353900000424,"CR","BL",2,0.7438,307377,NA
11,54,3,"A",0,"big","mid",0.04285,"right","right",2.0171,89.8143913038444,13.239,0.5874,1.85640553689164,13.3251106129192,1,6.56974959760281,1.18544810000094,1.23525090000112,"hit","BR",1,0.7607,311892,NA
11,55,3,"A",90,"small","up",0.04285,"left","left",1.667,123.731088550314,-12.1546,8.8787,0.196471397188809,17.6861568945369,1,9.02947793059353,0.805293500001426,0.874438200000441,"CR","BR",2,0.889,316811,NA
11,56,3,"A",0,"big","down",0.04285,"right","right",1.75,133.367183822158,11.1605,-8.5624,0.946701849269193,14.111101091409,1,8.03798681682656,1.25196120000146,1.33889020000061,"hit","BR",1,1.1785,321711,NA
11,57,3,"A",90,"big","down",0.04285,"right","left",1.7491,92.8693390431268,10.1664,-8.2461,1.98248519627943,13.1550226155921,0,7.48408637289324,1.02230790000067,1.1025378000013,"FA","TL",1,0.7975,326976,NA
11,58,3,"A",0,"big","mid",0.04285,"right","right",1.8847,76.0958429563543,14.1878,-0.3163,0.871571636606525,14.2032105978071,1,7.52971198451649,1.3233694999999,1.38645139999971,"hit","TL",1,0.9444,337109,NA
11,59,3,"A",90,"big","mid",0.04285,"left","left",1.549,57.4591299391986,-12.7419,-0.2033,2.26718733530922,13.0745893043067,1,8.22709595084496,0.705534700000499,0.902630599999611,"CR","BL",2,0.8118,342076,NA
11,60,3,"A",0,"small","up",0.04285,"right","right",1.7837,67.0277256407999,12.1771,8.9013,0.202791247028319,15.2323529152703,1,8.45622911609691,0.786233499999071,0.837295699999231,"hit","BR",2,1.1764,346678,NA
11,61,3,"A",0,"big","down",0.04285,"left","right",1.3831,89.2624110456573,-10.4376,-7.3424,2.2778850372942,12.9612742870814,0,9.22657488289264,0.720546799999283,0.787799100000484,"miss","TR",2,0.9927,351776,NA
11,62,3,"A",90,"big","down",0.04285,"left","left",1.3822,74.7289261669409,-10.0987,-8.2687,2.0371133609605,13.1267983395343,1,9.44267218496756,0.669512399999803,0.788659699999698,"CR","TL",2,0.9122,356493,NA
11,63,3,"A",90,"big","up",0.04285,"left","left",2.284,79.408946116105,-11.7705,7.9976,1.0283332554192,19.7771141148769,1,6.23058878189347,0.905736900000193,1.47001910000108,"CR","TR",2,0.8951,360928,NA
11,64,3,"A",0,"big","up",0.04285,"right","right",1.5516,101.661788354517,11.2057,7.6813,1.53943551010049,13.7444012357253,1,8.75578663228518,0.955079299999852,1.08687809999901,"hit","BL",1,0.739,366343,NA
11,65,3,"A",0,"small","mid",0.04285,"left","right",1.7508,56.9558430904126,-15.0463,0,0.0463436592053039,15.6830540799069,0,8.59376355764468,0.738503599999603,0.870266800000536,"miss","BL",2,1.1243,370977,NA
11,66,3,"A",90,"small","mid",0.04285,"right","left",2.367,67.3621226506416,14.843,-0.1356,0.207409997387069,15.0600621076858,0,6.27098772766477,1.20532300000013,1.368406399999,"FA","TR",1,0.775,376093,NA
11,67,3,"A",90,"small","up",0.04285,"left","left",1.8999,67.3453376612149,-11.8383,8.7883,0.266388177090654,14.9627705708191,1,7.76021405513204,0.902420700000221,1.03512320000118,"CR","BR",2,1.1606,381376,NA
11,68,3,"A",0,"small","mid",0.04285,"right","right",2.1002,43.8220261536929,14.9786,0.0226,0.031141008235902,15.0777865012548,1,7.13182683973034,0.905968900000516,1.03838899999937,"hit","TR",2,2.1087,386776,NA
11,69,3,"A",90,"small","down",0.04285,"right","left",1.9005,108.793214699008,11.9512,-9.1498,0.157544025976359,16.7044220460932,0,7.91983509541078,0.758683000000019,0.970861800000421,"FA","BL",2,0.8913,393327,NA
11,70,3,"A",90,"small","down",0.04285,"left","left",1.5832,52.0439369480966,-12.0642,-8.9691,0.0712505501496951,15.4177216090596,1,9.49540887889501,0.705746400000862,0.837728200000129,"CR","BL",2,0.847,398460,NA
11,71,3,"A",0,"small","down",0.04285,"right","right",2.0656,65.1084743663835,12.0642,-9.1046,0.122739494837722,15.7069509404125,1,7.3171855636735,1.10262169999987,1.18882760000088,"hit","TR",1,0.9814,403026,NA
11,72,3,"A",0,"big","up",0.04285,"left","right",1.6157,71.6863775925701,-12.132,8.1332,0.876828198910781,14.6955052722019,0,9.0402317402703,0.98897500000021,1.08618630000092,"miss","BR",1,1.0798,408411,NA
11,73,4,"A",0,"big","mid",0.04285,"left","right",1.7671,67.2746722367242,-12.9905,-0.0904,2.01156902875434,13.5391480741568,0,7.3516573086812,0.802783799999816,1.13876400000117,"miss","BL",1,0.8569,430609,NA
11,74,4,"A",0,"big","down",0.04285,"right","right",1.3505,133.130006765191,10.3698,-7.7265,2.06867735191432,13.0862926212074,1,9.57546372604078,0.739086600000519,0.802788999999393,"hit","TR",1,0.7067,435477,NA
11,75,4,"A",90,"small","up",0.04285,"right","left",1.9333,58.9076343395606,12.2223,9.0368,0.225362223133318,15.3420968521723,0,7.86240610702867,0.90251089999947,1.02076179999858,"FA","TL",1,1.0431,439676,NA
11,76,4,"A",0,"small","down",0.04285,"left","right",1.7991,125.068201028288,-12.0868,-9.0368,0.0942748912356012,16.934980956202,0,8.38859462713554,0.854430600000342,0.921072000001004,"miss","TR",2,0.7644,444792,NA
11,77,4,"A",90,"small","up",0.04285,"left","left",2.1166,104.672121537898,-11.8157,9.0594,0.193673042960321,15.5668309763726,1,7.03453409165642,1.02255180000066,1.20528969999941,"CR","BL",2,1.1097,449593,NA
11,78,4,"A",0,"small","up",0.04285,"left","right",1.7841,49.1469660780307,-11.7705,8.9239,0.241804891108661,15.3361701287315,0,8.27917621076293,0.79008629999953,0.953571000000011,"miss","BR",2,0.8425,455060,NA
11,79,4,"A",0,"small","down",0.04285,"left","right",1.9666,73.8802021123407,-11.9286,-9.0368,0.080316157591626,15.3428480830973,0,7.60956270644953,1.00476609999896,1.08600689999912,"miss","BL",1,1.2107,460025,NA
11,80,4,"A",90,"big","up",0.04285,"right","left",1.3333,53.7131427953923,11.6349,7.7039,1.34652324012313,14.0383663898622,0,10.466356319971,0.66936110000097,0.838848100000178,"FA","BL",2,1.1107,465343,NA
11,81,4,"A",0,"big","down",0.04285,"left","right",1.9166,165.835733802946,-11.409,-9.692,0.910026181433817,17.9303653066194,0,7.8105126592252,1.26926869999988,1.33827009999914,"miss","TL",1,0.8077,469927,NA
11,82,4,"A",90,"small","down",0.04285,"right","left",2.0499,59.6446235321455,11.8834,-8.7883,0.241637083507576,14.9840301254439,0,7.21014766632614,0.820627899998726,1.12128689999918,"FA","BL",2,0.7921,474893,NA
11,83,4,"A",90,"big","down",0.04285,"left","left",1.5823,93.5434796584441,-10.4827,-7.8846,1.88310906525035,13.6960989727356,1,8.28999633765702,0.971051000000443,1.03877910000119,"CR","BL",2,0.7637,479975,NA
11,84,4,"A",90,"small","down",0.04285,"right","left",2.4502,55.1198813550232,11.9512,-8.9917,0.0494831668663824,15.7898805223319,0,6.103954982998,1.4555462999997,1.60570240000015,"FA","BR",1,0.9258,484459,NA
11,85,4,"A",90,"small","mid",0.04285,"left","left",1.7655,74.7893920669989,-14.7978,0.0226,0.203427923116842,14.902629553116,1,8.38154615885235,0.739235000000917,0.82186990000082,"CR","TL",2,0.7303,490176,NA
11,86,4,"A",0,"small","up",0.04285,"right","right",2.1008,69.9991395591059,11.9286,9.0368,0.080316157591626,18.1440133916396,1,7.12367821874576,0.837938000000577,0.919129899999461,"hit","TL",2,0.8587,494808,NA
11,87,4,"A",0,"big","mid",0.04285,"right","right",2.9009,167.556002636171,15.0463,0.61,0.611744848074402,16.3272240324883,1,5.19097779397253,1.53595499999938,1.90658969999822,"hit","BL",2,0.9244,500009,NA
11,88,4,"A",0,"small","mid",0.04285,"left","right",2.4497,63.3368162455224,-14.7075,0,0.292537954740762,14.7074620452592,0,6.00373481448415,1.4184922000004,1.48770610000065,"miss","BR",2,0.7425,506076,NA
11,89,4,"A",0,"small","mid",0.04285,"right","right",2.6172,66.9671685610686,14.7526,-0.1356,0.282060972471673,15.9505002379606,1,5.63713348627108,1.53813169999921,1.60609529999965,"hit","TR",2,0.7416,511609,NA
11,90,4,"A",90,"big","mid",0.04285,"right","left",2.0502,43.3191178684095,13.3971,0.4067,1.65366127066519,13.4452870202842,0,6.53768330062237,1.15256829999998,1.27167519999966,"FA","TR",1,0.8577,517209,NA
11,91,4,"A",90,"big","down",0.04285,"left","left",1.1834,75.9686551972744,-10.5731,-9.3531,1.46994151859263,14.5019784764883,1,11.9289178222501,0.619334900000467,0.719259500001499,"CR","TR",2,0.7391,522259,NA
11,92,4,"A",0,"big","up",0.04285,"right","right",1.9668,53.293397727656,10.3924,8.3139,1.74791735977862,13.9812007577881,1,6.76652831769699,1.1710951999994,1.30223549999937,"hit","TR",1,0.9221,526424,NA
11,93,4,"A",90,"big","mid",0.04285,"left","left",1.5664,63.3170739515075,-13.7134,-0.5874,1.41433668166894,13.9352730386673,1,8.76285168615931,0.902534999999261,1.10209819999909,"CR","TL",2,0.89,531660,NA
11,94,4,"A",90,"big","up",0.04285,"right","left",1.5836,125.569528571873,12.9905,7.5684,1.74086734885288,20.2486258591873,0,9.49372074173834,0.788284000000203,0.836070800000016,"FA","TL",2,0.8557,536459,NA
11,95,4,"A",0,"big","up",0.04285,"right","right",1.4175,46.0694821910274,11.4542,7.9298,1.20131742280518,14.0620262610645,1,9.82823269258585,0.786974399999963,0.906422599999132,"hit","BR",2,1.2426,541141,NA
