start	accuracy_gabor	delta	orientation	pressed_gabor	expected_gabor	rt_gabor	trial	participant	response condition	date	expName	
0.0005	0	0.0005	0	3	4	1.140238898793882	0	8	8	2021_Apr_07_1358	Motor	
0.0425	1	0.0425	90	3	3	0.5590767065035607	1	8	8	2021_Apr_07_1358	Motor	
0.0005	0	0.004999999999999999	0	3	4	0.9608655098937788	2	8	8	2021_Apr_07_1358	Motor	
0.0425	1	0.038000000000000006	90	3	3	0.6765654237636909	3	8	8	2021_Apr_07_1358	Motor	
0.0425	1	0.03350000000000001	0	4	4	0.37519214161432046	4	8	8	2021_Apr_07_1358	Motor	
0.0005	1	0.009499999999999998	90	3	3	0.6829915839764453	5	8	8	2021_Apr_07_1358	Motor	
0.0425	1	0.02900000000000001	90	3	3	0.49241167821662657	6	8	8	2021_Apr_07_1358	Motor	
0.0425	1	0.024500000000000008	0	4	4	0.6952510157634606	7	8	8	2021_Apr_07_1358	Motor	
0.0005	1	0.004999999999999998	0	4	4	1.2797378387750769	8	8	8	2021_Apr_07_1358	Motor	
0.0005	1	0.004999999999999998	90	3	3	0.8726379973265921	9	8	8	2021_Apr_07_1358	Motor	
0.0425	1	0.020000000000000007	0	4	4	0.6263952946760583	10	8	8	2021_Apr_07_1358	Motor	
0.0005	1	0.004999999999999998	90	3	3	0.8352341737324878	11	8	8	2021_Apr_07_1358	Motor	
0.0005	1	0.0005	90	3	3	0.9215835656184481	12	8	8	2021_Apr_07_1358	Motor	
0.0425	1	0.015500000000000007	90	3	3	0.9813520395331352	13	8	8	2021_Apr_07_1358	Motor	
0.0425	1	0.011000000000000006	90	3	3	0.666538156262277	14	8	8	2021_Apr_07_1358	Motor	
0.0005	0	0.0005	0	3	4	0.735203415714409	15	8	8	2021_Apr_07_1358	Motor	
0.0425	0	0.006500000000000007	90	4	3	1.5791542812204398	16	8	8	2021_Apr_07_1358	Motor	
0.0005	1	0.004999999999999999	90	3	3	0.7487188959062223	17	8	8	2021_Apr_07_1358	Motor	
0.0425	1	0.011000000000000006	90	3	3	0.7624609332850696	18	8	8	2021_Apr_07_1358	Motor	
0.0005	1	0.004999999999999999	90	3	3	0.7752053510503174	19	8	8	2021_Apr_07_1358	Motor	
0.0425	1	0.011000000000000006	0	4	4	1.1420294685621002	20	8	8	2021_Apr_07_1358	Motor	
0.0425	1	0.011000000000000006	90	3	3	0.8827397599031883	21	8	8	2021_Apr_07_1358	Motor	
0.0005	0	0.004999999999999999	0	3	4	0.6694561360325224	22	8	8	2021_Apr_07_1358	Motor	
0.0005	1	0.009499999999999998	90	3	3	0.6461261216979892	23	8	8	2021_Apr_07_1358	Motor	
0.0425	1	0.006500000000000007	90	3	3	0.7571003598418429	24	8	8	2021_Apr_07_1358	Motor	
0.0005	0	0.009499999999999998	0	3	4	0.8465716329665156	25	8	8	2021_Apr_07_1358	Motor	
0.0425	1	0.006500000000000007	90	3	3	0.6664794049916054	26	8	8	2021_Apr_07_1358	Motor	
0.0425	1	0.006500000000000007	90	3	3	1.2773628282632217	27	8	8	2021_Apr_07_1358	Motor	
0.0005	1	0.013999999999999999	90	3	3	1.3300293103561671	28	8	8	2021_Apr_07_1358	Motor	
0.0005	1	0.013999999999999999	0	4	4	1.0827932120394053	29	8	8	2021_Apr_07_1358	Motor	
0.0425	1	0.002000000000000007	90	3	3	1.002487137119715	30	8	8	2021_Apr_07_1358	Motor	
0.0005	1	0.013999999999999999	0	4	4	0.9912403007604098	31	8	8	2021_Apr_07_1358	Motor	
0.0005	1	0.009499999999999998	90	3	3	0.5586113042820671	32	8	8	2021_Apr_07_1358	Motor	
0.0425	1	0.002000000000000007	90	3	3	1.2182532901672403	33	8	8	2021_Apr_07_1358	Motor	
0.0425	0	0.002000000000000007	90	4	3	0.7671383792098823	34	8	8	2021_Apr_07_1358	Motor	
0.0005	0	0.009499999999999998	90	4	3	1.5176977642645397	35	8	8	2021_Apr_07_1358	Motor	
0.0005	1	0.013999999999999999	0	4	4	0.45023901783224574	36	8	8	2021_Apr_07_1358	Motor	
0.0425	0	0.006500000000000007	90	4	3	1.0788242373182584	37	8	8	2021_Apr_07_1358	Motor	
0.0005	1	0.013999999999999999	90	3	3	0.5603746103888625	38	8	8	2021_Apr_07_1358	Motor	
0.0425	1	0.011000000000000006	90	3	3	0.7992046690749248	39	8	8	2021_Apr_07_1358	Motor	
0.0425	1	0.011000000000000006	90	3	3	0.7569609695724466	40	8	8	2021_Apr_07_1358	Motor	
0.0005	1	0.013999999999999999	0	4	4	0.9187892323129745	41	8	8	2021_Apr_07_1358	Motor	
0.0005	1	0.009499999999999998	90	3	3	0.66361787252049	42	8	8	2021_Apr_07_1358	Motor	
0.0425	1	0.011000000000000006	0	4	4	1.8493294867250825	43	8	8	2021_Apr_07_1358	Motor	
0.0005	0	0.009499999999999998	90	4	3	1.6496254702501574	44	8	8	2021_Apr_07_1358	Motor	
0.0425	1	0.006500000000000007	0	4	4	1.569176549103986	45	8	8	2021_Apr_07_1358	Motor	
0.0005	1	0.013999999999999999	0	4	4	1.0095783770748312	46	8	8	2021_Apr_07_1358	Motor	
0.0425	0	0.006500000000000007	0	3	4	0.5831689513743186	47	8	8	2021_Apr_07_1358	Motor	
0.0005	1	0.013999999999999999	0	4	4	0.4820445749346618	48	8	8	2021_Apr_07_1358	Motor	
0.0425	1	0.011000000000000006	0	4	4	0.6177772896771785	49	8	8	2021_Apr_07_1358	Motor	
0.0005	1	0.013999999999999999	90	3	3	0.5895156245740054	50	8	8	2021_Apr_07_1358	Motor	
0.0425	1	0.011000000000000006	90	3	3	0.49028319264380116	51	8	8	2021_Apr_07_1358	Motor	
0.0425	0	0.011000000000000006	0	3	4	1.1080566423688651	52	8	8	2021_Apr_07_1358	Motor	
0.0005	1	0.009499999999999998	90	3	3	0.5714121693465586	53	8	8	2021_Apr_07_1358	Motor	
0.0425	1	0.015500000000000007	0	4	4	2.2221581376845734	54	8	8	2021_Apr_07_1358	Motor	
0.0425	1	0.015500000000000007	0	4	4	0.5718211242688085	55	8	8	2021_Apr_07_1358	Motor	
0.0005	0	0.009499999999999998	0	3	4	0.731556228997988	56	8	8	2021_Apr_07_1358	Motor	
0.0425	1	0.015500000000000007	90	3	3	0.6983863368352559	57	8	8	2021_Apr_07_1358	Motor	
0.0005	1	0.013999999999999999	0	4	4	0.8682496998117131	58	8	8	2021_Apr_07_1358	Motor	
0.0005	1	0.013999999999999999	90	3	3	0.6238117747529941	59	8	8	2021_Apr_07_1358	Motor	
0.0425	0	0.011000000000000006	0	3	4	0.6495970546029639	60	8	8	2021_Apr_07_1358	Motor	
0.0425	1	0.015500000000000007	90	3	3	0.5224055458127168	61	8	8	2021_Apr_07_1358	Motor	
0.0005	1	0.013999999999999999	90	3	3	0.6822024737741685	62	8	8	2021_Apr_07_1358	Motor	
0.0005	1	0.009499999999999998	90	3	3	0.9338691090811153	63	8	8	2021_Apr_07_1358	Motor	
0.0425	1	0.015500000000000007	0	4	4	0.7057429174958543	64	8	8	2021_Apr_07_1358	Motor	
0.0425	1	0.015500000000000007	90	3	3	0.782450957088713	65	8	8	2021_Apr_07_1358	Motor	
0.0005	0	0.009499999999999998	0	3	4	1.0842573858603828	66	8	8	2021_Apr_07_1358	Motor	
0.0425	1	0.011000000000000006	90	3	3	0.6895417746493422	67	8	8	2021_Apr_07_1358	Motor	
0.0425	1	0.011000000000000006	90	3	3	0.7532269999335313	68	8	8	2021_Apr_07_1358	Motor	
0.0005	1	0.013999999999999999	90	3	3	0.6680637693202698	69	8	8	2021_Apr_07_1358	Motor	
0.0425	0	0.011000000000000006	0	3	4	0.6368261411666936	70	8	8	2021_Apr_07_1358	Motor	
0.0005	1	0.013999999999999999	0	4	4	0.5384696023613742	71	8	8	2021_Apr_07_1358	Motor	
0.0005	1	0.013999999999999999	0	4	4	1.0257491842980926	72	8	8	2021_Apr_07_1358	Motor	
0.0425	0	0.015500000000000007	0	3	4	0.7913327668122747	73	8	8	2021_Apr_07_1358	Motor	
0.0005	1	0.009499999999999998	90	3	3	0.7373004136782129	74	8	8	2021_Apr_07_1358	Motor	
0.0425	1	0.020000000000000007	0	4	4	0.6018211357886685	75	8	8	2021_Apr_07_1358	Motor	
0.0425	1	0.020000000000000007	90	3	3	0.7846113142659306	76	8	8	2021_Apr_07_1358	Motor	
0.0005	1	0.009499999999999998	90	3	3	0.7595298976768845	77	8	8	2021_Apr_07_1358	Motor	
0.0005	1	0.009499999999999998	90	3	3	1.2073213298983774	78	8	8	2021_Apr_07_1358	Motor	
0.0425	1	0.020000000000000007	90	3	3	0.7105973852228544	79	8	8	2021_Apr_07_1358	Motor	
0.0005	0	0.004999999999999998	0	3	4	1.3431462034966444	80	8	8	2021_Apr_07_1358	Motor	
0.0425	1	0.015500000000000007	0	4	4	0.7425861080510003	81	8	8	2021_Apr_07_1358	Motor	
0.0425	1	0.015500000000000007	90	3	3	1.2502278051717894	82	8	8	2021_Apr_07_1358	Motor	
0.0005	1	0.009499999999999998	90	3	3	0.5416936263318348	83	8	8	2021_Apr_07_1358	Motor	
0.0425	1	0.015500000000000007	90	3	3	0.60425758553788	84	8	8	2021_Apr_07_1358	Motor	
0.0425	1	0.011000000000000006	90	3	3	0.7702387567155711	85	8	8	2021_Apr_07_1358	Motor	
0.0005	1	0.009499999999999998	0	4	4	0.8859058005934912	86	8	8	2021_Apr_07_1358	Motor	
0.0005	1	0.009499999999999998	90	3	3	0.7905736082382191	87	8	8	2021_Apr_07_1358	Motor	
0.0425	1	0.011000000000000006	0	4	4	0.8974264255534763	88	8	8	2021_Apr_07_1358	Motor	
0.0425	1	0.011000000000000006	0	4	4	2.408076725319461	89	8	8	2021_Apr_07_1358	Motor	
0.0005	0	0.004999999999999998	0	3	4	0.9407318718731403	90	8	8	2021_Apr_07_1358	Motor	
0.0425	1	0.006500000000000007	90	3	3	0.927571587271359	91	8	8	2021_Apr_07_1358	Motor	
0.0005	1	0.009499999999999998	90	3	3	0.7312348249884053	92	8	8	2021_Apr_07_1358	Motor	
0.0005	0	0.009499999999999998	0	3	4	1.7250356059580554	93	8	8	2021_Apr_07_1358	Motor	
0.0425	1	0.006500000000000007	90	3	3	0.748812206747516	94	8	8	2021_Apr_07_1358	Motor	
0.0425	1	0.006500000000000007	90	3	3	0.6594707240114985	95	8	8	2021_Apr_07_1358	Motor	
0.0005	1	0.013999999999999999	90	3	3	0.8462214293147099	96	8	8	2021_Apr_07_1358	Motor	
0.0005	0	0.013999999999999999	0	3	4	1.2880521035451693	97	8	8	2021_Apr_07_1358	Motor	
0.0425	1	0.002000000000000007	0	4	4	0.7506995433143402	98	8	8	2021_Apr_07_1358	Motor	
0.0005	1	0.0185	90	3	3	0.6504633478471078	99	8	8	2021_Apr_07_1358	Motor	
0.0425	1	0.002000000000000007	90	3	3	0.9031886580096398	100	8	8	2021_Apr_07_1358	Motor	
0.0005	1	0.0185	0	4	4	0.8651439463728821	101	8	8	2021_Apr_07_1358	Motor	
0.0425	1	0.002000000000000007	90	3	3	0.8076061007625412	102	8	8	2021_Apr_07_1358	Motor	
0.0425	1	0.0005	90	3	3	0.8866200317256698	103	8	8	2021_Apr_07_1358	Motor	
0.0005	1	0.0185	0	4	4	0.6650870382793528	104	8	8	2021_Apr_07_1358	Motor	
0.0005	1	0.013999999999999999	0	4	4	0.7530499781316848	105	8	8	2021_Apr_07_1358	Motor	
0.0425	1	0.0005	90	3	3	0.8357475753580275	106	8	8	2021_Apr_07_1358	Motor	
0.0005	1	0.013999999999999999	0	4	4	1.279478641993137	107	8	8	2021_Apr_07_1358	Motor	
0.0425	0	0.0005	90	4	3	1.6932657604122596	108	8	8	2021_Apr_07_1358	Motor	
