start	accuracy_gabor	delta	orientation	pressed_gabor	expected_gabor	rt_gabor	trial	participant	response condition	date	expName	
0.0005	1	0.0005	0	4	4	0.27672799478068555	0	1	1	2021_Mar_24_1044	Motor	
0.06	1	0.06	0	4	4	0.16494271345140987	1	1	1	2021_Mar_24_1044	Motor	
0.06	0	0.0555	90	4	3	0.03910660862175064	2	1	1	2021_Mar_24_1044	Motor	
0.06	0	0.06	90	4	3	0.2413277223733985	3	1	1	2021_Mar_24_1044	Motor	
0.06	1	0.0645	0	4	4	0.5689460327189408	4	1	1	2021_Mar_24_1044	Motor	
0.0005	1	0.0005	0	4	4	0.5129869606239481	5	1	1	2021_Mar_24_1044	Motor	
0.06	1	0.0645	0	4	4	0.26667611298580596	6	1	1	2021_Mar_24_1044	Motor	
0.0005	1	0.0005	0	4	4	0.23405751272275666	7	1	1	2021_Mar_24_1044	Motor	
0.0005	1	0.0005	90	3	3	0.19804783754170785	8	1	1	2021_Mar_24_1044	Motor	
0.06	1	0.0645	0	4	4	0.37494513647061467	9	1	1	2021_Mar_24_1044	Motor	
0.06	1	0.060000000000000005	0	4	4	0.6247960497489657	10	1	1	2021_Mar_24_1044	Motor	
0.0005	1	0.0005	0	4	4	0.02839694046792829	11	1	1	2021_Mar_24_1044	Motor	
0.06	1	0.060000000000000005	0	4	4	0.5372006409672849	12	1	1	2021_Mar_24_1044	Motor	
0.0005	0	0.0005	0	3	4	0.32893964301365486	13	1	1	2021_Mar_24_1044	Motor	
0.06	1	0.060000000000000005	0	4	4	0.45162159889309805	14	1	1	2021_Mar_24_1044	Motor	
0.0005	0	0.004999999999999999	0	3	4	0.4570528483147882	15	1	1	2021_Mar_24_1044	Motor	
0.06	1	0.05550000000000001	0	4	4	0.6741357866114868	16	1	1	2021_Mar_24_1044	Motor	
0.0005	1	0.009499999999999998	0	4	4	0.3173717422198479	17	1	1	2021_Mar_24_1044	Motor	
0.06	0	0.05550000000000001	0	3	4	0.3283033604702723	18	1	1	2021_Mar_24_1044	Motor	
0.06	1	0.060000000000000005	0	4	4	0.4069716138114927	19	1	1	2021_Mar_24_1044	Motor	
0.0005	1	0.009499999999999998	90	3	3	0.6716340480663803	20	1	1	2021_Mar_24_1044	Motor	
0.0005	1	0.009499999999999998	0	4	4	0.16772860955938995	21	1	1	2021_Mar_24_1044	Motor	
0.06	1	0.060000000000000005	0	4	4	0.5291524539886723	22	1	1	2021_Mar_24_1044	Motor	
0.0005	1	0.004999999999999998	90	3	3	0.16194830713129704	23	1	1	2021_Mar_24_1044	Motor	
0.06	1	0.060000000000000005	90	3	3	0.1023781300052633	24	1	1	2021_Mar_24_1044	Motor	
0.06	1	0.05550000000000001	0	4	4	0.4567775226757931	25	1	1	2021_Mar_24_1044	Motor	
0.0005	0	0.004999999999999998	0	3	4	0.07425920315313306	26	1	1	2021_Mar_24_1044	Motor	
0.06	1	0.05550000000000001	0	4	4	0.5304998984329359	27	1	1	2021_Mar_24_1044	Motor	
0.06	0	0.05550000000000001	90	4	3	0.06652512548043887	28	1	1	2021_Mar_24_1044	Motor	
0.0005	1	0.009499999999999998	90	3	3	0.23780570457847716	29	1	1	2021_Mar_24_1044	Motor	
0.06	1	0.060000000000000005	0	4	4	0.6425313216514041	30	1	1	2021_Mar_24_1044	Motor	
0.0005	1	0.009499999999999998	90	3	3	0.3872710467633169	31	1	1	2021_Mar_24_1044	Motor	
0.06	0	0.060000000000000005	90	4	3	0.628943214182982	32	1	1	2021_Mar_24_1044	Motor	
0.06	1	0.0645	90	3	3	0.6768091716846811	33	1	1	2021_Mar_24_1044	Motor	
0.0005	0	0.009499999999999998	0	3	4	0.42904259253077726	34	1	1	2021_Mar_24_1044	Motor	
0.0005	1	0.013999999999999999	90	3	3	0.26379728967435767	35	1	1	2021_Mar_24_1044	Motor	
0.0005	1	0.013999999999999999	90	3	3	0.16318516052410814	36	1	1	2021_Mar_24_1044	Motor	
0.06	1	0.0645	90	3	3	0.762079480406328	37	1	1	2021_Mar_24_1044	Motor	
0.06	1	0.0645	0	4	4	0.6765856856011396	38	1	1	2021_Mar_24_1044	Motor	
0.06	1	0.060000000000000005	0	4	4	0.5702811892685986	39	1	1	2021_Mar_24_1044	Motor	
0.0005	1	0.013999999999999999	90	3	3	0.07896546679216954	40	1	1	2021_Mar_24_1044	Motor	
0.06	0	0.060000000000000005	0	3	4	0.3426755892141955	41	1	1	2021_Mar_24_1044	Motor	
0.0005	0	0.009499999999999998	0	3	4	0.692437069659718	42	1	1	2021_Mar_24_1044	Motor	
0.0005	1	0.013999999999999999	90	3	3	0.23019220187188694	43	1	1	2021_Mar_24_1044	Motor	
0.06	0	0.0645	0	3	4	0.203479086963398	44	1	1	2021_Mar_24_1044	Motor	
0.0005	0	0.013999999999999999	0	3	4	0.16085391651677128	45	1	1	2021_Mar_24_1044	Motor	
0.06	1	0.069	90	3	3	0.3880912637291658	46	1	1	2021_Mar_24_1044	Motor	
0.06	1	0.069	90	3	3	0.6071740568750101	47	1	1	2021_Mar_24_1044	Motor	
0.06	1	0.069	90	3	3	0.35713613720054127	48	1	1	2021_Mar_24_1044	Motor	
0.06	1	0.0645	0	4	4	0.6002594281749225	49	1	1	2021_Mar_24_1044	Motor	
0.0005	0	0.0185	0	3	4	0.07989205084595596	50	1	1	2021_Mar_24_1044	Motor	
0.06	0	0.0645	0	3	4	0.1383574694464187	51	1	1	2021_Mar_24_1044	Motor	
0.0005	0	0.023	0	3	4	0.5087629968488727	52	1	1	2021_Mar_24_1044	Motor	
0.06	0	0.069	0	3	4	0.32160876188345355	53	1	1	2021_Mar_24_1044	Motor	
0.06	0	0.07350000000000001	90	4	3	0.13722083919401484	54	1	1	2021_Mar_24_1044	Motor	
0.0005	1	0.0275	90	3	3	0.17622108072782794	55	1	1	2021_Mar_24_1044	Motor	
0.06	1	0.07800000000000001	0	4	4	0.4058814471604819	56	1	1	2021_Mar_24_1044	Motor	
0.0005	1	0.0275	0	4	4	0.49465034987861145	57	1	1	2021_Mar_24_1044	Motor	
0.0005	1	0.0275	90	3	3	0.6804567564031458	58	1	1	2021_Mar_24_1044	Motor	
0.06	0	0.07800000000000001	0	3	4	0.009038898482231161	59	1	1	2021_Mar_24_1044	Motor	
0.06	1	0.08250000000000002	90	3	3	0.4161264792996917	60	1	1	2021_Mar_24_1044	Motor	
0.0005	1	0.023	90	3	3	0.10327668229911069	61	1	1	2021_Mar_24_1044	Motor	
0.06	1	0.08250000000000002	0	4	4	0.5095590220221311	62	1	1	2021_Mar_24_1044	Motor	
0.06	1	0.08250000000000002	0	4	4	0.2277476788358399	63	1	1	2021_Mar_24_1044	Motor	
0.0005	0	0.023	0	3	4	0.3263488172324287	64	1	1	2021_Mar_24_1044	Motor	
0.06	1	0.07800000000000001	0	4	4	0.3409518279972872	65	1	1	2021_Mar_24_1044	Motor	
0.0005	0	0.0275	0	3	4	0.5651056816536766	66	1	1	2021_Mar_24_1044	Motor	
0.06	1	0.07800000000000001	90	3	3	0.27231932858921937	67	1	1	2021_Mar_24_1044	Motor	
0.0005	0	0.032	0	3	4	0.060927989481569966	68	1	1	2021_Mar_24_1044	Motor	
0.06	1	0.07800000000000001	0	4	4	0.5240188020147798	69	1	1	2021_Mar_24_1044	Motor	
0.0005	1	0.0365	90	3	3	0.4943658083188893	70	1	1	2021_Mar_24_1044	Motor	
0.0005	1	0.0365	90	3	3	0.6271871972426197	71	1	1	2021_Mar_24_1044	Motor	
0.06	1	0.07350000000000001	0	4	4	0.3434232308022729	72	1	1	2021_Mar_24_1044	Motor	
0.0005	1	0.0365	90	3	3	0.33536966786959965	73	1	1	2021_Mar_24_1044	Motor	
0.06	1	0.07350000000000001	0	4	4	0.6619062594918432	74	1	1	2021_Mar_24_1044	Motor	
0.0005	0	0.032	0	3	4	0.377304796234057	75	1	1	2021_Mar_24_1044	Motor	
0.0005	1	0.0365	90	3	3	0.6939964802859322	76	1	1	2021_Mar_24_1044	Motor	
