start,accuracy_gabor,delta,orientation,pressed_gabor,expected_gabor,rt_gabor,trial,participant,response condition,date,expName,
0.04,1,0.04,0,4,4,0.6085495330792128,0,1,1,2021_Mar_24_1031,Motor,
0.06,0,0.06,0,3,4,0.041202078650940166,1,1,1,2021_Mar_24_1031,Motor,
0.04,1,0.035500000000000004,0,4,4,0.41591988907089217,2,1,1,2021_Mar_24_1031,Motor,
0.06,0,0.0645,90,4,3,0.5193175303329554,3,1,1,2021_Mar_24_1031,Motor,
0.04,0,0.031000000000000003,0,3,4,0.00104523903610243,4,1,1,2021_Mar_24_1031,Motor,
0.06,1,0.069,0,4,4,0.08741608231957798,5,1,1,2021_Mar_24_1031,Motor,
0.06,1,0.0645,0,4,4,0.591171378114268,6,1,1,2021_Mar_24_1031,Motor,
0.04,1,0.035500000000000004,0,4,4,0.671973885152056,7,1,1,2021_Mar_24_1031,Motor,
0.04,1,0.035500000000000004,0,4,4,0.575780406107242,8,1,1,2021_Mar_24_1031,Motor,
0.06,0,0.0645,90,4,3,0.49648931010756314,9,1,1,2021_Mar_24_1031,Motor,
0.04,1,0.035500000000000004,90,3,3,0.6381779509858916,10,1,1,2021_Mar_24_1031,Motor,
0.06,0,0.069,90,4,3,0.772930843344966,11,1,1,2021_Mar_24_1031,Motor,
0.04,0,0.031000000000000003,0,3,4,0.057857167816791844,12,1,1,2021_Mar_24_1031,Motor,
0.06,0,0.07350000000000001,90,4,3,0.59429327134103,13,1,1,2021_Mar_24_1031,Motor,
0.06,1,0.07800000000000001,0,4,4,0.492089091843809,14,1,1,2021_Mar_24_1031,Motor,
0.04,0,0.035500000000000004,90,4,3,0.3759673357042175,15,1,1,2021_Mar_24_1031,Motor,
0.04,1,0.04,0,4,4,0.49645705438410914,16,1,1,2021_Mar_24_1031,Motor,
0.04,0,0.04,90,4,3,0.17514742593562005,17,1,1,2021_Mar_24_1031,Motor,
0.06,1,0.07800000000000001,0,4,4,0.2988177893385,18,1,1,2021_Mar_24_1031,Motor,
0.04,1,0.0445,0,4,4,0.3409042124055759,19,1,1,2021_Mar_24_1031,Motor,
0.06,1,0.07800000000000001,0,4,4,0.1278693673923499,20,1,1,2021_Mar_24_1031,Motor,
0.04,0,0.0445,90,4,3,0.6464868717287118,21,1,1,2021_Mar_24_1031,Motor,
0.04,1,0.048999999999999995,0,4,4,0.28613361011821326,22,1,1,2021_Mar_24_1031,Motor,
0.06,1,0.07350000000000001,90,3,3,0.657772534942751,23,1,1,2021_Mar_24_1031,Motor,
0.06,1,0.07350000000000001,0,4,4,0.29340535575556714,24,1,1,2021_Mar_24_1031,Motor,
0.06,0,0.07350000000000001,90,4,3,0.0177963273788464,25,1,1,2021_Mar_24_1031,Motor,
0.06,1,0.07800000000000001,0,4,4,0.09603143243452905,26,1,1,2021_Mar_24_1031,Motor,
0.06,1,0.07800000000000001,0,4,4,0.18089931260738012,27,1,1,2021_Mar_24_1031,Motor,
0.04,1,0.048999999999999995,90,3,3,0.21638406429042334,28,1,1,2021_Mar_24_1031,Motor,
0.04,1,0.048999999999999995,0,4,4,0.03357744003983498,29,1,1,2021_Mar_24_1031,Motor,
0.06,0,0.07800000000000001,0,3,4,0.13227572960317957,30,1,1,2021_Mar_24_1031,Motor,
0.04,1,0.0445,0,4,4,0.20596700162695925,31,1,1,2021_Mar_24_1031,Motor,
0.06,1,0.08250000000000002,0,4,4,0.41118981763611373,32,1,1,2021_Mar_24_1031,Motor,
0.04,1,0.0445,0,4,4,0.2359210487411474,33,1,1,2021_Mar_24_1031,Motor,
0.06,1,0.08250000000000002,90,3,3,0.49973446627723206,34,1,1,2021_Mar_24_1031,Motor,
0.06,0,0.08250000000000002,90,4,3,0.3932613953902546,35,1,1,2021_Mar_24_1031,Motor,
0.06,1,0.08700000000000002,0,4,4,0.21996560157481326,36,1,1,2021_Mar_24_1031,Motor,
0.04,0,0.0445,90,4,3,0.5006134347390798,37,1,1,2021_Mar_24_1031,Motor,
0.06,1,0.08700000000000002,0,4,4,0.08622031657455409,38,1,1,2021_Mar_24_1031,Motor,
0.04,0,0.048999999999999995,90,4,3,0.009781164116702712,39,1,1,2021_Mar_24_1031,Motor,
0.04,1,0.05349999999999999,0,4,4,0.26906226852202053,40,1,1,2021_Mar_24_1031,Motor,
0.06,0,0.08700000000000002,90,4,3,0.2805660418655407,41,1,1,2021_Mar_24_1031,Motor,
0.04,1,0.05349999999999999,0,4,4,0.15428949281317728,42,1,1,2021_Mar_24_1031,Motor,
0.06,1,0.09150000000000003,0,4,4,0.1900975697233207,43,1,1,2021_Mar_24_1031,Motor,
0.06,0,0.09150000000000003,90,4,3,0.2158664367293568,44,1,1,2021_Mar_24_1031,Motor,
0.04,1,0.05349999999999999,0,4,4,0.28950049324362226,45,1,1,2021_Mar_24_1031,Motor,
0.04,1,0.048999999999999995,90,3,3,0.3133428487717538,46,1,1,2021_Mar_24_1031,Motor,
0.06,1,0.09600000000000003,0,4,4,0.2531559729343371,47,1,1,2021_Mar_24_1031,Motor,
0.06,1,0.09600000000000003,90,3,3,0.22862933527471796,48,1,1,2021_Mar_24_1031,Motor,
0.04,1,0.048999999999999995,0,4,4,0.17374890992937253,49,1,1,2021_Mar_24_1031,Motor,
0.06,1,0.09600000000000003,0,4,4,0.2493133178888911,50,1,1,2021_Mar_24_1031,Motor,
0.04,1,0.048999999999999995,90,3,3,0.2641267588487608,51,1,1,2021_Mar_24_1031,Motor,
0.06,1,0.09150000000000003,0,4,4,0.23489116957330225,52,1,1,2021_Mar_24_1031,Motor,
0.04,0,0.0445,90,4,3,0.28758434967653557,53,1,1,2021_Mar_24_1031,Motor,
0.06,1,0.09150000000000003,90,3,3,0.20917222213893183,54,1,1,2021_Mar_24_1031,Motor,
0.04,1,0.048999999999999995,90,3,3,0.1571256924901263,55,1,1,2021_Mar_24_1031,Motor,
0.04,1,0.048999999999999995,90,3,3,0.6838347754330698,56,1,1,2021_Mar_24_1031,Motor,
0.06,1,0.09150000000000003,0,4,4,0.2636072113045884,57,1,1,2021_Mar_24_1031,Motor,
0.04,1,0.048999999999999995,0,4,4,0.3364686664447163,58,1,1,2021_Mar_24_1031,Motor,
0.06,0,0.08700000000000002,90,4,3,0.3090309497506496,59,1,1,2021_Mar_24_1031,Motor,
0.06,1,0.09150000000000003,90,3,3,0.42258146394146934,60,1,1,2021_Mar_24_1031,Motor,
0.04,0,0.0445,0,3,4,0.25953339024158595,61,1,1,2021_Mar_24_1031,Motor,
0.04,1,0.048999999999999995,0,4,4,0.26926501878324416,62,1,1,2021_Mar_24_1031,Motor,
0.06,1,0.09150000000000003,90,3,3,0.2350082885689062,63,1,1,2021_Mar_24_1031,Motor,
0.06,1,0.09150000000000003,90,3,3,0.6067220927513972,64,1,1,2021_Mar_24_1031,Motor,
0.04,1,0.048999999999999995,90,3,3,0.3274865994749234,65,1,1,2021_Mar_24_1031,Motor,
0.04,1,0.048999999999999995,90,3,3,0.2712706335830717,66,1,1,2021_Mar_24_1031,Motor,
0.06,0,0.08700000000000002,0,3,4,0.21508269945070424,67,1,1,2021_Mar_24_1031,Motor,
0.06,1,0.09150000000000003,0,4,4,0.2525849698311049,68,1,1,2021_Mar_24_1031,Motor,
0.04,1,0.0445,0,4,4,0.24546835886326335,69,1,1,2021_Mar_24_1031,Motor,
0.06,1,0.09150000000000003,0,4,4,0.2652280614040592,70,1,1,2021_Mar_24_1031,Motor,
0.04,1,0.0445,90,3,3,0.2800357424134745,71,1,1,2021_Mar_24_1031,Motor,
0.04,1,0.0445,90,3,3,0.24248124848077168,72,1,1,2021_Mar_24_1031,Motor,
0.04,1,0.04,0,4,4,0.3312620550966585,73,1,1,2021_Mar_24_1031,Motor,
0.06,1,0.09150000000000003,90,3,3,0.34098907567772585,74,1,1,2021_Mar_24_1031,Motor,
0.04,1,0.04,0,4,4,0.3236566163209318,75,1,1,2021_Mar_24_1031,Motor,
0.06,1,0.08700000000000002,90,3,3,0.257138018784417,76,1,1,2021_Mar_24_1031,Motor,
0.06,1,0.08700000000000002,0,4,4,0.5491563784348727,77,1,1,2021_Mar_24_1031,Motor,
0.04,1,0.04,90,3,3,0.7539038065210661,78,1,1,2021_Mar_24_1031,Motor,
