start	accuracy_gabor	delta	orientation	pressed_gabor	expected_gabor	rt_gabor	trial	participant	response condition	date	expName	
0.0165	1	0.0165	90	x	x	1.1073032568829149	0	7	1	2021_Jun_08_1029	Motor	
0.025	1	0.025	0	n	n	0.6318654270316983	1	7	1	2021_Jun_08_1029	Motor	
0.0165	1	0.01485	0	n	n	0.5425983638788239	2	7	1	2021_Jun_08_1029	Motor	
0.0165	1	0.0132	0	n	n	0.6594143017764509	3	7	1	2021_Jun_08_1029	Motor	
0.025	1	0.023350000000000003	0	n	n	0.5712439252165495	4	7	1	2021_Jun_08_1029	Motor	
0.0165	1	0.01155	90	x	x	0.6871881969482274	5	7	1	2021_Jun_08_1029	Motor	
0.025	1	0.021700000000000004	90	x	x	0.8368705571901955	6	7	1	2021_Jun_08_1029	Motor	
0.0165	1	0.009899999999999999	0	n	n	0.613783154034536	7	7	1	2021_Jun_08_1029	Motor	
0.025	1	0.020050000000000005	0	n	n	0.7034672345680519	8	7	1	2021_Jun_08_1029	Motor	
0.0165	1	0.008249999999999999	0	n	n	0.5493171052385151	9	7	1	2021_Jun_08_1029	Motor	
0.025	1	0.018400000000000007	90	x	x	0.41807221235740144	10	7	1	2021_Jun_08_1029	Motor	
0.025	1	0.016750000000000008	0	n	n	0.4687156325453543	11	7	1	2021_Jun_08_1029	Motor	
0.025	1	0.015100000000000008	0	n	n	0.5754885938449661	12	7	1	2021_Jun_08_1029	Motor	
0.0165	1	0.006599999999999998	0	n	n	0.7593809711052018	13	7	1	2021_Jun_08_1029	Motor	
0.0165	1	0.004949999999999998	90	x	x	0.9231724194069102	14	7	1	2021_Jun_08_1029	Motor	
0.025	1	0.013450000000000007	0	n	n	0.488991662724402	15	7	1	2021_Jun_08_1029	Motor	
0.0165	1	0.003299999999999998	0	n	n	0.4718574706785148	16	7	1	2021_Jun_08_1029	Motor	
0.025	1	0.011800000000000007	0	n	n	0.4557923176644181	17	7	1	2021_Jun_08_1029	Motor	
0.0165	0	0.0016499999999999978	90	n	x	0.6635637399167535	18	7	1	2021_Jun_08_1029	Motor	
0.025	0	0.010150000000000006	90	n	x	0.6715293094866865	19	7	1	2021_Jun_08_1029	Motor	
0.0165	1	0.003299999999999998	0	n	n	1.030170017141245	20	7	1	2021_Jun_08_1029	Motor	
0.025	1	0.011800000000000007	90	x	x	0.7351532596467223	21	7	1	2021_Jun_08_1029	Motor	
0.0165	1	0.003299999999999998	90	x	x	0.747612709891655	22	7	1	2021_Jun_08_1029	Motor	
0.025	1	0.011800000000000007	0	n	n	0.619619861393403	23	7	1	2021_Jun_08_1029	Motor	
0.025	1	0.011800000000000007	90	x	x	0.7813953416934964	24	7	1	2021_Jun_08_1029	Motor	
0.0165	1	0.003299999999999998	90	x	x	0.7681341121751757	25	7	1	2021_Jun_08_1029	Motor	
0.0165	1	0.0016499999999999978	0	n	n	0.8431542334565165	26	7	1	2021_Jun_08_1029	Motor	
0.025	1	0.010150000000000006	0	n	n	0.5570929818204604	27	7	1	2021_Jun_08_1029	Motor	
0.025	1	0.010150000000000006	0	n	n	0.6167452830195543	28	7	1	2021_Jun_08_1029	Motor	
0.0165	0	0.0016499999999999978	90	n	x	1.0895108992835958	29	7	1	2021_Jun_08_1029	Motor	
0.025	1	0.010150000000000006	0	n	n	1.0083142360363126	30	7	1	2021_Jun_08_1029	Motor	
0.0165	0	0.003299999999999998	0	x	n	0.6592607042148302	31	7	1	2021_Jun_08_1029	Motor	
0.025	1	0.008500000000000006	0	n	n	0.8269489226668156	32	7	1	2021_Jun_08_1029	Motor	
0.025	0	0.008500000000000006	90	n	x	0.5257295116207388	33	7	1	2021_Jun_08_1029	Motor	
0.0165	1	0.004949999999999998	0	n	n	0.5153943156619789	34	7	1	2021_Jun_08_1029	Motor	
0.025	1	0.010150000000000006	0	n	n	0.7053100213197467	35	7	1	2021_Jun_08_1029	Motor	
0.0165	1	0.004949999999999998	0	n	n	0.6951921659101572	36	7	1	2021_Jun_08_1029	Motor	
0.025	1	0.010150000000000006	0	n	n	0.6680653004668784	37	7	1	2021_Jun_08_1029	Motor	
0.025	1	0.010150000000000006	0	n	n	0.4767134576040917	38	7	1	2021_Jun_08_1029	Motor	
0.0165	1	0.004949999999999998	0	n	n	0.3874882497866565	39	7	1	2021_Jun_08_1029	Motor	
0.0165	1	0.003299999999999998	0	n	n	0.5503250892397773	40	7	1	2021_Jun_08_1029	Motor	
0.025	1	0.008500000000000006	0	n	n	0.4581193207295655	41	7	1	2021_Jun_08_1029	Motor	
0.025	0	0.008500000000000006	0	x	n	0.7779209648388132	42	7	1	2021_Jun_08_1029	Motor	
0.0165	0	0.003299999999999998	90	n	x	1.1096241160457794	43	7	1	2021_Jun_08_1029	Motor	
0.0165	0	0.004949999999999998	90	n	x	0.6233795457192173	44	7	1	2021_Jun_08_1029	Motor	
0.025	0	0.010150000000000006	90	n	x	0.5973332391267832	45	7	1	2021_Jun_08_1029	Motor	
0.0165	1	0.006599999999999998	90	x	x	0.5591700048535131	46	7	1	2021_Jun_08_1029	Motor	
0.025	1	0.011800000000000007	90	x	x	0.9318798652029727	47	7	1	2021_Jun_08_1029	Motor	
0.0165	0	0.006599999999999998	90	n	x	0.5368626469162336	48	7	1	2021_Jun_08_1029	Motor	
0.025	1	0.011800000000000007	0	n	n	0.5645701111434391	49	7	1	2021_Jun_08_1029	Motor	
0.0165	0	0.008249999999999999	90	n	x	0.6643751190376861	50	7	1	2021_Jun_08_1029	Motor	
0.025	0	0.011800000000000007	90	n	x	0.6722262584244163	51	7	1	2021_Jun_08_1029	Motor	
0.025	1	0.013450000000000007	0	n	n	0.6471610562593924	52	7	1	2021_Jun_08_1029	Motor	
0.0165	1	0.009899999999999999	90	x	x	0.6839638001265484	53	7	1	2021_Jun_08_1029	Motor	
0.0165	1	0.009899999999999999	90	x	x	0.9308146661096544	54	7	1	2021_Jun_08_1029	Motor	
0.025	0	0.013450000000000007	90	n	x	0.6624981568293151	55	7	1	2021_Jun_08_1029	Motor	
0.0165	1	0.009899999999999999	0	n	n	0.5303005750693046	56	7	1	2021_Jun_08_1029	Motor	
0.025	1	0.015100000000000008	90	x	x	0.6511342411968144	57	7	1	2021_Jun_08_1029	Motor	
0.025	1	0.015100000000000008	0	n	n	0.7030809366988251	58	7	1	2021_Jun_08_1029	Motor	
0.0165	0	0.008249999999999999	0	x	n	0.7778595258132555	59	7	1	2021_Jun_08_1029	Motor	
0.0165	1	0.009899999999999999	0	n	n	0.4856451558398476	60	7	1	2021_Jun_08_1029	Motor	
0.025	0	0.015100000000000008	90	n	x	0.3915505213099095	61	7	1	2021_Jun_08_1029	Motor	
0.025	1	0.016750000000000008	0	n	n	0.49434031383043475	62	7	1	2021_Jun_08_1029	Motor	
0.0165	1	0.009899999999999999	0	n	n	0.50913751896951	63	7	1	2021_Jun_08_1029	Motor	
0.025	1	0.016750000000000008	90	x	x	0.7230397879120574	64	7	1	2021_Jun_08_1029	Motor	
0.0165	1	0.009899999999999999	90	x	x	0.752913745753176	65	7	1	2021_Jun_08_1029	Motor	
0.025	1	0.016750000000000008	0	n	n	0.5045606956127813	66	7	1	2021_Jun_08_1029	Motor	
0.0165	1	0.008249999999999999	0	n	n	0.5275304430369943	67	7	1	2021_Jun_08_1029	Motor	
0.025	1	0.015100000000000008	0	n	n	0.4922609868335712	68	7	1	2021_Jun_08_1029	Motor	
0.0165	0	0.008249999999999999	90	n	x	0.9952407795381077	69	7	1	2021_Jun_08_1029	Motor	
0.0165	0	0.009899999999999999	90	n	x	0.5667254689333276	70	7	1	2021_Jun_08_1029	Motor	
0.025	0	0.015100000000000008	90	n	x	0.9386085904043284	71	7	1	2021_Jun_08_1029	Motor	
0.0165	1	0.01155	0	n	n	0.627340442852983	72	7	1	2021_Jun_08_1029	Motor	
0.025	1	0.016750000000000008	90	x	x	0.5801921351903729	73	7	1	2021_Jun_08_1029	Motor	
0.025	0	0.016750000000000008	90	n	x	0.6937610206250611	74	7	1	2021_Jun_08_1029	Motor	
0.0165	1	0.01155	0	n	n	0.6093226808307008	75	7	1	2021_Jun_08_1029	Motor	
0.025	1	0.018400000000000007	0	n	n	0.6761433802521424	76	7	1	2021_Jun_08_1029	Motor	
0.0165	1	0.01155	0	n	n	0.6030274847480541	77	7	1	2021_Jun_08_1029	Motor	
0.025	1	0.018400000000000007	90	x	x	0.7197827516083635	78	7	1	2021_Jun_08_1029	Motor	
0.025	1	0.018400000000000007	0	n	n	0.4804328225700374	79	7	1	2021_Jun_08_1029	Motor	
0.0165	1	0.009899999999999999	0	n	n	0.611376664229283	80	7	1	2021_Jun_08_1029	Motor	
0.025	1	0.016750000000000008	90	x	x	0.693313283731186	81	7	1	2021_Jun_08_1029	Motor	
0.0165	0	0.009899999999999999	90	n	x	0.6800420703721102	82	7	1	2021_Jun_08_1029	Motor	
0.025	0	0.016750000000000008	90	n	x	0.7387904499182696	83	7	1	2021_Jun_08_1029	Motor	
0.0165	1	0.01155	90	x	x	0.7515355916275439	84	7	1	2021_Jun_08_1029	Motor	
0.0165	1	0.01155	0	n	n	0.5554395040644522	85	7	1	2021_Jun_08_1029	Motor	
0.025	0	0.018400000000000007	90	n	x	0.7322571776139739	86	7	1	2021_Jun_08_1029	Motor	
0.0165	0	0.01155	90	n	x	0.6200710542325396	87	7	1	2021_Jun_08_1029	Motor	
0.025	1	0.020050000000000005	90	x	x	0.7098446053460066	88	7	1	2021_Jun_08_1029	Motor	
0.0165	1	0.0132	0	n	n	0.5436624109906916	89	7	1	2021_Jun_08_1029	Motor	
0.025	1	0.020050000000000005	0	n	n	0.43254609462837834	90	7	1	2021_Jun_08_1029	Motor	
0.025	1	0.020050000000000005	0	n	n	0.5773244687061378	91	7	1	2021_Jun_08_1029	Motor	
0.0165	1	0.0132	0	n	n	0.5812319906863195	92	7	1	2021_Jun_08_1029	Motor	
