start,accuracy_gabor,delta,orientation,pressed_gabor,expected_gabor,rt_gabor,trial,participant,response condition,date,expName,
0.0005,0,0.0005,0,4,3,0.31351833526673545,0,3,3,2021_Mar_30_1522,Motor,
0.0425,1,0.0425,90,4,4,0.25629130604579586,1,3,3,2021_Mar_30_1522,Motor,
0.0425,1,0.038000000000000006,0,3,3,0.20702414456081897,2,3,3,2021_Mar_30_1522,Motor,
0.0005,0,0.004999999999999999,90,3,4,0.35696218669227164,3,3,3,2021_Mar_30_1522,Motor,
0.0005,0,0.009499999999999998,0,4,3,0.2816362406877033,4,3,3,2021_Mar_30_1522,Motor,
0.0425,0,0.03350000000000001,0,4,3,0.26529103686425515,5,3,3,2021_Mar_30_1522,Motor,
0.0425,1,0.038000000000000006,90,4,4,0.4311027348628613,6,3,3,2021_Mar_30_1522,Motor,
0.0005,0,0.013999999999999999,90,3,4,0.27102564368419735,7,3,3,2021_Mar_30_1522,Motor,
0.0005,0,0.0185,0,4,3,0.2947282244106191,8,3,3,2021_Mar_30_1522,Motor,
0.0425,1,0.038000000000000006,90,4,4,0.2664361150436889,9,3,3,2021_Mar_30_1522,Motor,
0.0005,0,0.023,90,3,4,0.17941247735848265,10,3,3,2021_Mar_30_1522,Motor,
0.0425,1,0.038000000000000006,0,3,3,0.30117322513842737,11,3,3,2021_Mar_30_1522,Motor,
0.0425,1,0.03350000000000001,0,3,3,0.44646106714981215,12,3,3,2021_Mar_30_1522,Motor,
0.0005,1,0.0275,0,3,3,0.2721895377026158,13,3,3,2021_Mar_30_1522,Motor,
0.0425,0,0.03350000000000001,90,3,4,0.40535652366224895,14,3,3,2021_Mar_30_1522,Motor,
0.0005,1,0.023,0,3,3,0.2630534880531741,15,3,3,2021_Mar_30_1522,Motor,
0.0425,0,0.038000000000000006,0,4,3,0.16773129753642024,16,3,3,2021_Mar_30_1522,Motor,
0.0425,0,0.0425,0,4,3,0.14751732689137498,17,3,3,2021_Mar_30_1522,Motor,
0.0005,0,0.023,90,3,4,0.18210275828664635,18,3,3,2021_Mar_30_1522,Motor,
0.0005,1,0.0275,90,4,4,0.23475293075875925,19,3,3,2021_Mar_30_1522,Motor,
0.0005,1,0.0275,0,3,3,0.3055431076622881,20,3,3,2021_Mar_30_1522,Motor,
0.0425,0,0.047,90,3,4,0.2532968997259104,21,3,3,2021_Mar_30_1522,Motor,
0.0425,1,0.0515,90,4,4,0.23923225234420897,22,3,3,2021_Mar_30_1522,Motor,
0.0005,0,0.0275,90,3,4,0.4489885334742212,23,3,3,2021_Mar_30_1522,Motor,
0.0005,1,0.032,0,3,3,0.23053703091454736,24,3,3,2021_Mar_30_1522,Motor,
0.0425,1,0.0515,0,3,3,0.13841007699511465,25,3,3,2021_Mar_30_1522,Motor,
0.0425,0,0.0515,90,3,4,0.21522554622583812,26,3,3,2021_Mar_30_1522,Motor,
0.0005,0,0.032,0,4,3,0.21912580077719213,27,3,3,2021_Mar_30_1522,Motor,
0.0005,1,0.0365,90,4,4,0.14389124598869785,28,3,3,2021_Mar_30_1522,Motor,
0.0425,0,0.055999999999999994,90,3,4,0.23667291429319448,29,3,3,2021_Mar_30_1522,Motor,
0.0005,1,0.0365,0,3,3,0.22919803439754105,30,3,3,2021_Mar_30_1522,Motor,
0.0425,1,0.06049999999999999,90,4,4,0.1861424036428616,31,3,3,2021_Mar_30_1522,Motor,
0.0005,1,0.0365,0,3,3,0.19395673662711488,32,3,3,2021_Mar_30_1522,Motor,
0.0425,1,0.06049999999999999,0,3,3,0.31075240698737616,33,3,3,2021_Mar_30_1522,Motor,
0.0425,1,0.06049999999999999,90,4,4,0.3364198988631415,34,3,3,2021_Mar_30_1522,Motor,
0.0005,1,0.032,0,3,3,0.26419895022968376,35,3,3,2021_Mar_30_1522,Motor,
0.0425,1,0.055999999999999994,0,3,3,0.24576173234731868,36,3,3,2021_Mar_30_1522,Motor,
0.0005,0,0.032,0,4,3,0.18759544718136567,37,3,3,2021_Mar_30_1522,Motor,
0.0425,1,0.055999999999999994,90,4,4,0.1943672291065468,38,3,3,2021_Mar_30_1522,Motor,
0.0005,1,0.0365,90,4,4,0.4100935070380274,39,3,3,2021_Mar_30_1522,Motor,
0.0005,0,0.0365,0,4,3,0.3350386627084845,40,3,3,2021_Mar_30_1522,Motor,
0.0425,1,0.055999999999999994,90,4,4,0.2739079229654635,41,3,3,2021_Mar_30_1522,Motor,
0.0005,1,0.040999999999999995,0,3,3,0.26561013812738565,42,3,3,2021_Mar_30_1522,Motor,
0.0425,1,0.0515,0,3,3,0.24040536228358178,43,3,3,2021_Mar_30_1522,Motor,
0.0005,0,0.040999999999999995,90,3,4,0.26515894199701506,44,3,3,2021_Mar_30_1522,Motor,
0.0425,1,0.0515,0,3,3,0.3060100476577645,45,3,3,2021_Mar_30_1522,Motor,
0.0425,1,0.0515,90,4,4,0.22872879042188288,46,3,3,2021_Mar_30_1522,Motor,
0.0005,1,0.04549999999999999,0,3,3,0.22651888937411968,47,3,3,2021_Mar_30_1522,Motor,
0.0005,1,0.04549999999999999,0,3,3,0.303389654130342,48,3,3,2021_Mar_30_1522,Motor,
0.0425,1,0.047,0,3,3,0.2602265042974068,49,3,3,2021_Mar_30_1522,Motor,
0.0005,1,0.04549999999999999,0,3,3,0.2536728325017066,50,3,3,2021_Mar_30_1522,Motor,
0.0425,1,0.047,90,4,4,0.2494254449275104,51,3,3,2021_Mar_30_1522,Motor,
0.0005,1,0.040999999999999995,90,4,4,0.319276749882647,52,3,3,2021_Mar_30_1522,Motor,
0.0005,0,0.040999999999999995,90,3,4,0.20197842783295528,53,3,3,2021_Mar_30_1522,Motor,
0.0425,1,0.047,90,4,4,0.31965076267510995,54,3,3,2021_Mar_30_1522,Motor,
0.0005,1,0.04549999999999999,90,4,4,0.302635100601492,55,3,3,2021_Mar_30_1522,Motor,
0.0425,1,0.0425,0,3,3,0.245342023946705,56,3,3,2021_Mar_30_1522,Motor,
0.0005,1,0.04549999999999999,90,4,4,0.21506733958244695,57,3,3,2021_Mar_30_1522,Motor,
0.0425,1,0.0425,0,3,3,0.2500221758098178,58,3,3,2021_Mar_30_1522,Motor,
0.0425,1,0.0425,0,3,3,0.19757129762865588,59,3,3,2021_Mar_30_1522,Motor,
0.0005,0,0.04549999999999999,0,4,3,0.1716123522523958,60,3,3,2021_Mar_30_1522,Motor,
0.0005,0,0.04999999999999999,0,4,3,0.16821705337042658,61,3,3,2021_Mar_30_1522,Motor,
0.0425,1,0.038000000000000006,90,4,4,0.43515351612336417,62,3,3,2021_Mar_30_1522,Motor,
0.0005,1,0.054499999999999986,90,4,4,0.2507917052105313,63,3,3,2021_Mar_30_1522,Motor,
0.0425,1,0.038000000000000006,0,3,3,0.23866547320494647,64,3,3,2021_Mar_30_1522,Motor,
0.0425,0,0.038000000000000006,0,4,3,0.3354318753363259,65,3,3,2021_Mar_30_1522,Motor,
0.0005,0,0.054499999999999986,90,3,4,0.26417130246682063,66,3,3,2021_Mar_30_1522,Motor,
0.0425,1,0.0425,0,3,3,0.3100946206284334,67,3,3,2021_Mar_30_1522,Motor,
0.0005,1,0.05899999999999998,0,3,3,0.2768182340068961,68,3,3,2021_Mar_30_1522,Motor,
0.0005,1,0.05899999999999998,90,4,4,0.2906478754036925,69,3,3,2021_Mar_30_1522,Motor,
0.0425,1,0.0425,90,4,4,0.32137913185260913,70,3,3,2021_Mar_30_1522,Motor,
0.0425,1,0.0425,90,4,4,0.5032315242863206,71,3,3,2021_Mar_30_1522,Motor,
0.0005,1,0.05899999999999998,90,4,4,0.4499258694359014,72,3,3,2021_Mar_30_1522,Motor,
0.0005,1,0.054499999999999986,0,3,3,0.3093949786286885,73,3,3,2021_Mar_30_1522,Motor,
0.0005,1,0.054499999999999986,90,4,4,0.2322227764575473,74,3,3,2021_Mar_30_1522,Motor,
0.0425,1,0.038000000000000006,90,4,4,0.326004756183238,75,3,3,2021_Mar_30_1522,Motor,
0.0425,1,0.038000000000000006,0,3,3,0.21875908392189558,76,3,3,2021_Mar_30_1522,Motor,
0.0005,1,0.054499999999999986,90,4,4,0.2934556593243087,77,3,3,2021_Mar_30_1522,Motor,
0.0005,1,0.04999999999999999,0,3,3,0.23231493566709105,78,3,3,2021_Mar_30_1522,Motor,
0.0425,1,0.038000000000000006,0,3,3,0.21110641355153348,79,3,3,2021_Mar_30_1522,Motor,
0.0425,1,0.03350000000000001,0,3,3,0.2247233207726822,80,3,3,2021_Mar_30_1522,Motor,
0.0005,1,0.04999999999999999,90,4,4,0.25658967148706324,81,3,3,2021_Mar_30_1522,Motor,
0.0425,1,0.03350000000000001,0,3,3,0.1893898637924849,82,3,3,2021_Mar_30_1522,Motor,
0.0005,0,0.04999999999999999,0,4,3,0.29514409284433896,83,3,3,2021_Mar_30_1522,Motor,
0.0005,1,0.054499999999999986,0,3,3,0.3347510491748835,84,3,3,2021_Mar_30_1522,Motor,
0.0425,1,0.03350000000000001,0,3,3,0.2238328324096983,85,3,3,2021_Mar_30_1522,Motor,
0.0005,1,0.054499999999999986,0,3,3,0.2373149567870314,86,3,3,2021_Mar_30_1522,Motor,
0.0005,0,0.054499999999999986,90,3,4,0.20608296863247233,87,3,3,2021_Mar_30_1522,Motor,
0.0425,1,0.02900000000000001,0,3,3,0.22261018689505363,88,3,3,2021_Mar_30_1522,Motor,
0.0005,1,0.05899999999999998,0,3,3,0.2573565129105191,89,3,3,2021_Mar_30_1522,Motor,
0.0005,1,0.05899999999999998,90,4,4,0.3431605770549595,90,3,3,2021_Mar_30_1522,Motor,
0.0005,1,0.05899999999999998,90,4,4,0.3256668390813502,91,3,3,2021_Mar_30_1522,Motor,
0.0425,1,0.02900000000000001,90,4,4,0.3494377712218011,92,3,3,2021_Mar_30_1522,Motor,
0.0005,1,0.054499999999999986,90,4,4,0.287235680666754,93,3,3,2021_Mar_30_1522,Motor,
0.0425,1,0.02900000000000001,90,4,4,0.2601124572754543,94,3,3,2021_Mar_30_1522,Motor,
0.0425,1,0.024500000000000008,0,3,3,0.2927095537229434,95,3,3,2021_Mar_30_1522,Motor,
0.0005,1,0.054499999999999986,0,3,3,0.2256449128692566,96,3,3,2021_Mar_30_1522,Motor,
0.0005,0,0.054499999999999986,90,3,4,0.2553754738999032,97,3,3,2021_Mar_30_1522,Motor,
0.0425,1,0.024500000000000008,90,4,4,0.3109259734990246,98,3,3,2021_Mar_30_1522,Motor,
0.0425,1,0.024500000000000008,0,3,3,0.3889130166819541,99,3,3,2021_Mar_30_1522,Motor,
0.0005,1,0.05899999999999998,0,3,3,0.2237763848936538,100,3,3,2021_Mar_30_1522,Motor,
0.0005,1,0.05899999999999998,0,3,3,0.2635423158612866,101,3,3,2021_Mar_30_1522,Motor,
0.0425,1,0.020000000000000007,90,4,4,0.42939471751083147,102,3,3,2021_Mar_30_1522,Motor,
0.0005,1,0.05899999999999998,90,4,4,0.2089729278482082,103,3,3,2021_Mar_30_1522,Motor,
0.0425,1,0.020000000000000007,90,4,4,0.2448524281455775,104,3,3,2021_Mar_30_1522,Motor,
0.0005,0,0.054499999999999986,90,3,4,0.20059872766523767,105,3,3,2021_Mar_30_1522,Motor,
0.0425,1,0.020000000000000007,90,4,4,0.281392786775541,106,3,3,2021_Mar_30_1522,Motor,
0.0425,0,0.015500000000000007,90,3,4,0.20609909649419933,107,3,3,2021_Mar_30_1522,Motor,
0.0005,1,0.05899999999999998,90,4,4,0.32302839770841274,108,3,3,2021_Mar_30_1522,Motor,
