start	accuracy_gabor	delta	orientation	pressed_gabor	expected_gabor	rt_gabor	trial	participant	response condition	date	expName	
0.025	1	0.025	90	x	x	0.523720748416963	0	9	1	2021_Jun_09_1130	Motor	
0.0165	1	0.0165	0	n	n	0.8475454051849738	1	9	1	2021_Jun_09_1130	Motor	
0.0165	0	0.01485	0	x	n	0.6793148653459866	2	9	1	2021_Jun_09_1130	Motor	
0.025	1	0.023350000000000003	0	n	n	0.5101919270973667	3	9	1	2021_Jun_09_1130	Motor	
0.0165	1	0.0165	0	n	n	0.6880119099096191	4	9	1	2021_Jun_09_1130	Motor	
0.025	1	0.021700000000000004	90	x	x	0.4068092609759333	5	9	1	2021_Jun_09_1130	Motor	
0.0165	1	0.0165	90	x	x	0.42464878132250305	6	9	1	2021_Jun_09_1130	Motor	
0.025	0	0.020050000000000005	0	x	n	0.5344479609611881	7	9	1	2021_Jun_09_1130	Motor	
0.025	1	0.021700000000000004	90	x	x	0.42730332099745283	8	9	1	2021_Jun_09_1130	Motor	
0.0165	1	0.0165	90	x	x	0.4201453180958197	9	9	1	2021_Jun_09_1130	Motor	
0.0165	1	0.01485	90	x	x	0.3900998303515735	10	9	1	2021_Jun_09_1130	Motor	
0.025	1	0.021700000000000004	90	x	x	0.456858450405889	11	9	1	2021_Jun_09_1130	Motor	
0.025	1	0.021700000000000004	0	n	n	0.4665108681383572	12	9	1	2021_Jun_09_1130	Motor	
0.025	1	0.020050000000000005	0	n	n	0.7371694689154538	13	9	1	2021_Jun_09_1130	Motor	
0.0165	1	0.01485	90	x	x	0.4621421862530042	14	9	1	2021_Jun_09_1130	Motor	
0.0165	1	0.01485	90	x	x	0.35006093959873397	15	9	1	2021_Jun_09_1130	Motor	
0.025	1	0.020050000000000005	90	x	x	0.37773834602103307	16	9	1	2021_Jun_09_1130	Motor	
0.0165	1	0.0132	0	n	n	0.5935893231671798	17	9	1	2021_Jun_09_1130	Motor	
0.025	1	0.020050000000000005	90	x	x	0.46439468585231225	18	9	1	2021_Jun_09_1130	Motor	
0.025	1	0.018400000000000007	90	x	x	0.34719750804288196	19	9	1	2021_Jun_09_1130	Motor	
0.0165	0	0.0132	0	x	n	0.7641564569485126	20	9	1	2021_Jun_09_1130	Motor	
0.025	1	0.018400000000000007	90	x	x	0.42700764682558656	21	9	1	2021_Jun_09_1130	Motor	
0.0165	1	0.01485	0	n	n	0.48072396396855765	22	9	1	2021_Jun_09_1130	Motor	
0.0165	1	0.01485	90	x	x	0.39569383208254294	23	9	1	2021_Jun_09_1130	Motor	
0.025	1	0.018400000000000007	0	n	n	0.47428210695125017	24	9	1	2021_Jun_09_1130	Motor	
0.0165	1	0.01485	90	x	x	0.513123325313245	25	9	1	2021_Jun_09_1130	Motor	
0.025	1	0.016750000000000008	90	x	x	0.3992461460602499	26	9	1	2021_Jun_09_1130	Motor	
0.0165	1	0.0132	90	x	x	0.4409116287506549	27	9	1	2021_Jun_09_1130	Motor	
0.025	0	0.016750000000000008	0	x	n	0.4508643285616927	28	9	1	2021_Jun_09_1130	Motor	
0.0165	1	0.0132	90	x	x	0.5147230377797314	29	9	1	2021_Jun_09_1130	Motor	
0.025	1	0.018400000000000007	0	n	n	0.4715231213358493	30	9	1	2021_Jun_09_1130	Motor	
0.025	1	0.018400000000000007	0	n	n	0.3912840630091523	31	9	1	2021_Jun_09_1130	Motor	
0.0165	1	0.0132	0	n	n	0.44514668126885226	32	9	1	2021_Jun_09_1130	Motor	
0.0165	1	0.01155	90	x	x	0.5100598337003248	33	9	1	2021_Jun_09_1130	Motor	
0.025	1	0.018400000000000007	90	x	x	0.4917875538840235	34	9	1	2021_Jun_09_1130	Motor	
0.025	1	0.016750000000000008	0	n	n	0.5226455696110861	35	9	1	2021_Jun_09_1130	Motor	
0.0165	1	0.01155	90	x	x	0.3673801502027345	36	9	1	2021_Jun_09_1130	Motor	
0.0165	0	0.01155	0	x	n	0.6272527875926244	37	9	1	2021_Jun_09_1130	Motor	
0.025	1	0.016750000000000008	90	x	x	0.5731947171861975	38	9	1	2021_Jun_09_1130	Motor	
0.0165	1	0.0132	90	x	x	0.5008762707275309	39	9	1	2021_Jun_09_1130	Motor	
0.0165	0	0.0132	0	x	n	0.5025938688704628	40	9	1	2021_Jun_09_1130	Motor	
0.025	1	0.016750000000000008	90	x	x	0.40551597446847154	41	9	1	2021_Jun_09_1130	Motor	
0.025	1	0.015100000000000008	90	x	x	0.391365853395655	42	9	1	2021_Jun_09_1130	Motor	
0.0165	1	0.01485	90	x	x	0.3621440294164131	43	9	1	2021_Jun_09_1130	Motor	
0.0165	0	0.01485	0	x	n	0.5099649875701289	44	9	1	2021_Jun_09_1130	Motor	
0.025	1	0.015100000000000008	90	x	x	0.38782505919243704	45	9	1	2021_Jun_09_1130	Motor	
0.025	0	0.015100000000000008	0	x	n	0.4437443409115076	46	9	1	2021_Jun_09_1130	Motor	
0.0165	1	0.0165	0	n	n	0.48345991003861855	47	9	1	2021_Jun_09_1130	Motor	
0.0165	1	0.0165	90	x	x	0.6303585183732139	48	9	1	2021_Jun_09_1130	Motor	
0.025	1	0.016750000000000008	0	n	n	0.7031711630907012	49	9	1	2021_Jun_09_1130	Motor	
0.025	1	0.016750000000000008	90	x	x	0.5770392494023326	50	9	1	2021_Jun_09_1130	Motor	
0.0165	1	0.0165	90	x	x	0.5686793501918146	51	9	1	2021_Jun_09_1130	Motor	
0.025	1	0.016750000000000008	0	n	n	0.7035620673841549	52	9	1	2021_Jun_09_1130	Motor	
0.0165	0	0.01485	0	x	n	0.5863994488945536	53	9	1	2021_Jun_09_1130	Motor	
0.0165	1	0.0165	90	x	x	0.49324979706034355	54	9	1	2021_Jun_09_1130	Motor	
0.025	1	0.015100000000000008	90	x	x	0.43215314539702376	55	9	1	2021_Jun_09_1130	Motor	
0.025	1	0.015100000000000008	90	x	x	0.4839003493561904	56	9	1	2021_Jun_09_1130	Motor	
0.0165	0	0.0165	0	x	n	0.9627081910957713	57	9	1	2021_Jun_09_1130	Motor	
0.025	1	0.015100000000000008	90	x	x	0.4316009642816425	58	9	1	2021_Jun_09_1130	Motor	
0.0165	1	0.01815	0	n	n	0.4794076379166654	59	9	1	2021_Jun_09_1130	Motor	
0.0165	1	0.01815	0	n	n	0.36616519815197535	60	9	1	2021_Jun_09_1130	Motor	
0.025	1	0.013450000000000007	90	x	x	0.509118284260694	61	9	1	2021_Jun_09_1130	Motor	
0.0165	1	0.01815	0	n	n	0.563952787362723	62	9	1	2021_Jun_09_1130	Motor	
0.025	1	0.013450000000000007	0	n	n	0.7426978079411128	63	9	1	2021_Jun_09_1130	Motor	
0.025	1	0.013450000000000007	0	n	n	0.5595245866506957	64	9	1	2021_Jun_09_1130	Motor	
0.0165	1	0.0165	90	x	x	0.4963129046800532	65	9	1	2021_Jun_09_1130	Motor	
0.025	1	0.011800000000000007	90	x	x	0.4101284915477663	66	9	1	2021_Jun_09_1130	Motor	
0.0165	0	0.0165	0	x	n	0.6439944735811878	67	9	1	2021_Jun_09_1130	Motor	
0.0165	1	0.01815	90	x	x	0.5249445322933752	68	9	1	2021_Jun_09_1130	Motor	
0.025	1	0.011800000000000007	90	x	x	0.4506919159612153	69	9	1	2021_Jun_09_1130	Motor	
0.025	1	0.011800000000000007	90	x	x	0.48258171934958227	70	9	1	2021_Jun_09_1130	Motor	
0.0165	1	0.01815	0	n	n	0.5093594315067094	71	9	1	2021_Jun_09_1130	Motor	
0.025	1	0.010150000000000006	90	x	x	0.5191089993231799	72	9	1	2021_Jun_09_1130	Motor	
0.0165	1	0.01815	90	x	x	0.485057318550389	73	9	1	2021_Jun_09_1130	Motor	
0.025	1	0.010150000000000006	90	x	x	0.49197993409143237	74	9	1	2021_Jun_09_1130	Motor	
0.0165	1	0.0165	90	x	x	0.4106779847152211	75	9	1	2021_Jun_09_1130	Motor	
0.025	1	0.010150000000000006	90	x	x	0.47251727773982566	76	9	1	2021_Jun_09_1130	Motor	
0.0165	1	0.0165	0	n	n	0.6273338099963439	77	9	1	2021_Jun_09_1130	Motor	
0.0165	0	0.0165	0	x	n	0.8907499295373782	78	9	1	2021_Jun_09_1130	Motor	
0.025	0	0.008500000000000006	0	x	n	0.7004064175880558	79	9	1	2021_Jun_09_1130	Motor	
0.025	1	0.010150000000000006	90	x	x	0.53124661606671	80	9	1	2021_Jun_09_1130	Motor	
0.0165	0	0.01815	0	x	n	0.6321379392966264	81	9	1	2021_Jun_09_1130	Motor	
0.0165	1	0.019799999999999998	0	n	n	0.3918208844261244	82	9	1	2021_Jun_09_1130	Motor	
0.025	1	0.010150000000000006	90	x	x	0.46259529732196825	83	9	1	2021_Jun_09_1130	Motor	
0.025	1	0.010150000000000006	90	x	x	0.4425032773751809	84	9	1	2021_Jun_09_1130	Motor	
0.0165	1	0.019799999999999998	90	x	x	0.4633748019559789	85	9	1	2021_Jun_09_1130	Motor	
0.025	1	0.008500000000000006	90	x	x	0.4832421863302443	86	9	1	2021_Jun_09_1130	Motor	
0.0165	1	0.019799999999999998	90	x	x	0.3942254450284963	87	9	1	2021_Jun_09_1130	Motor	
0.0165	1	0.01815	90	x	x	0.35997754412255745	88	9	1	2021_Jun_09_1130	Motor	
0.025	1	0.008500000000000006	90	x	x	0.3487469175006481	89	9	1	2021_Jun_09_1130	Motor	
0.025	0	0.008500000000000006	0	x	n	0.38059025780421507	90	9	1	2021_Jun_09_1130	Motor	
0.0165	1	0.01815	0	n	n	0.6194742529232826	91	9	1	2021_Jun_09_1130	Motor	
0.025	1	0.010150000000000006	90	x	x	0.5721790572060854	92	9	1	2021_Jun_09_1130	Motor	
0.0165	1	0.01815	90	x	x	0.45213534350841655	93	9	1	2021_Jun_09_1130	Motor	
0.025	1	0.010150000000000006	90	x	x	0.49709125733716064	94	9	1	2021_Jun_09_1130	Motor	
0.0165	1	0.0165	90	x	x	0.4107236798145095	95	9	1	2021_Jun_09_1130	Motor	
0.025	1	0.010150000000000006	90	x	x	0.5005517971230802	96	9	1	2021_Jun_09_1130	Motor	
0.0165	1	0.0165	90	x	x	0.4183178981174933	97	9	1	2021_Jun_09_1130	Motor	
