start	accuracy_gabor	delta	orientation	pressed_gabor	expected_gabor	rt_gabor	trial	participant	response condition	date	expName	
0.025	1	0.025	0	n	n	0.7696731317382728	0	9	1	2021_Jun_16_1027	Motor	
0.0165	1	0.0165	0	n	n	0.9194754317932166	1	9	1	2021_Jun_16_1027	Motor	
0.025	1	0.023350000000000003	0	n	n	0.7023798872514817	2	9	1	2021_Jun_16_1027	Motor	
0.0165	1	0.01485	90	x	x	0.6431470866855307	3	9	1	2021_Jun_16_1027	Motor	
0.025	1	0.021700000000000004	0	n	n	0.857675239103628	4	9	1	2021_Jun_16_1027	Motor	
0.0165	0	0.0132	90	n	x	0.9012867296232798	5	9	1	2021_Jun_16_1027	Motor	
0.025	1	0.020050000000000005	0	n	n	0.6752018566940023	6	9	1	2021_Jun_16_1027	Motor	
0.0165	1	0.01485	0	n	n	0.6190867134191649	7	9	1	2021_Jun_16_1027	Motor	
0.025	1	0.018400000000000007	90	x	x	0.5688409372705792	8	9	1	2021_Jun_16_1027	Motor	
0.025	1	0.016750000000000008	90	x	x	0.9088333879244601	9	9	1	2021_Jun_16_1027	Motor	
0.0165	1	0.01485	90	x	x	0.8146201576764724	10	9	1	2021_Jun_16_1027	Motor	
0.0165	1	0.01485	0	n	n	0.5674086350536527	11	9	1	2021_Jun_16_1027	Motor	
0.025	1	0.015100000000000008	0	n	n	0.8192142766356483	12	9	1	2021_Jun_16_1027	Motor	
0.0165	1	0.0132	90	x	x	1.1161673896658613	13	9	1	2021_Jun_16_1027	Motor	
0.025	1	0.013450000000000007	0	n	n	0.805815530993641	14	9	1	2021_Jun_16_1027	Motor	
0.0165	1	0.0132	90	x	x	0.6876671099253144	15	9	1	2021_Jun_16_1027	Motor	
0.025	1	0.011800000000000007	90	x	x	0.7864852109996718	16	9	1	2021_Jun_16_1027	Motor	
0.0165	1	0.0132	90	x	x	0.7224947095064636	17	9	1	2021_Jun_16_1027	Motor	
0.025	1	0.010150000000000006	90	x	x	0.8793218183400313	18	9	1	2021_Jun_16_1027	Motor	
0.0165	1	0.01155	0	n	n	0.7755828183644553	19	9	1	2021_Jun_16_1027	Motor	
0.025	1	0.008500000000000006	0	n	n	0.710457610958656	20	9	1	2021_Jun_16_1027	Motor	
0.0165	1	0.01155	0	n	n	0.6402913141428144	21	9	1	2021_Jun_16_1027	Motor	
0.025	1	0.006850000000000005	0	n	n	0.6411499274827293	22	9	1	2021_Jun_16_1027	Motor	
0.0165	1	0.01155	0	n	n	0.8019291152477308	23	9	1	2021_Jun_16_1027	Motor	
0.025	1	0.005200000000000005	0	n	n	0.6127722958190134	24	9	1	2021_Jun_16_1027	Motor	
0.0165	1	0.009899999999999999	0	n	n	0.6427504196108202	25	9	1	2021_Jun_16_1027	Motor	
0.025	0	0.003550000000000005	90	n	x	0.9185066118225222	26	9	1	2021_Jun_16_1027	Motor	
0.0165	1	0.009899999999999999	0	n	n	0.7362290669798313	27	9	1	2021_Jun_16_1027	Motor	
0.025	0	0.005200000000000005	0	x	n	0.8370489352000732	28	9	1	2021_Jun_16_1027	Motor	
0.0165	1	0.009899999999999999	90	x	x	0.7497756507855229	29	9	1	2021_Jun_16_1027	Motor	
0.0165	0	0.008249999999999999	0	x	n	0.8136006503345925	30	9	1	2021_Jun_16_1027	Motor	
0.025	0	0.006850000000000005	0	x	n	0.8994984638266033	31	9	1	2021_Jun_16_1027	Motor	
0.025	0	0.008500000000000006	0	x	n	0.8972901072456807	32	9	1	2021_Jun_16_1027	Motor	
0.0165	1	0.009899999999999999	90	x	x	0.9431617937034389	33	9	1	2021_Jun_16_1027	Motor	
0.025	1	0.010150000000000006	90	x	x	1.0358828184789672	34	9	1	2021_Jun_16_1027	Motor	
0.0165	0	0.009899999999999999	90	n	x	1.1006578222322787	35	9	1	2021_Jun_16_1027	Motor	
0.025	1	0.010150000000000006	90	x	x	0.8184693258845073	36	9	1	2021_Jun_16_1027	Motor	
0.0165	1	0.01155	90	x	x	0.8363254881824105	37	9	1	2021_Jun_16_1027	Motor	
0.0165	0	0.01155	0	x	n	1.0303505991669226	38	9	1	2021_Jun_16_1027	Motor	
0.025	1	0.010150000000000006	0	n	n	0.7559453021831359	39	9	1	2021_Jun_16_1027	Motor	
0.025	1	0.008500000000000006	90	x	x	0.959691252473931	40	9	1	2021_Jun_16_1027	Motor	
0.0165	0	0.0132	90	n	x	0.992578140149817	41	9	1	2021_Jun_16_1027	Motor	
0.0165	1	0.01485	0	n	n	0.9154492417819711	42	9	1	2021_Jun_16_1027	Motor	
0.025	1	0.008500000000000006	0	n	n	0.8373277157388657	43	9	1	2021_Jun_16_1027	Motor	
0.0165	1	0.01485	0	n	n	0.9661853798425	44	9	1	2021_Jun_16_1027	Motor	
0.025	1	0.008500000000000006	0	n	n	0.7767444039418478	45	9	1	2021_Jun_16_1027	Motor	
0.0165	0	0.01485	90	n	x	0.7595448734909951	46	9	1	2021_Jun_16_1027	Motor	
0.025	1	0.006850000000000005	0	n	n	1.1323942601920862	47	9	1	2021_Jun_16_1027	Motor	
0.0165	1	0.0165	90	x	x	0.9852234794652759	48	9	1	2021_Jun_16_1027	Motor	
0.025	1	0.006850000000000005	0	n	n	0.5919347945373374	49	9	1	2021_Jun_16_1027	Motor	
0.0165	1	0.0165	0	n	n	0.5898028530082229	50	9	1	2021_Jun_16_1027	Motor	
0.025	1	0.006850000000000005	0	n	n	0.6686351542266493	51	9	1	2021_Jun_16_1027	Motor	
0.025	0	0.005200000000000005	90	n	x	0.7324701376510347	52	9	1	2021_Jun_16_1027	Motor	
0.0165	1	0.0165	0	n	n	0.7292576335366903	53	9	1	2021_Jun_16_1027	Motor	
0.025	1	0.006850000000000005	0	n	n	0.7021575540120466	54	9	1	2021_Jun_16_1027	Motor	
0.0165	1	0.01485	90	x	x	0.7897883379882842	55	9	1	2021_Jun_16_1027	Motor	
0.025	0	0.006850000000000005	90	n	x	0.7525024009300978	56	9	1	2021_Jun_16_1027	Motor	
0.0165	0	0.01485	90	n	x	0.6283271746897299	57	9	1	2021_Jun_16_1027	Motor	
0.025	0	0.008500000000000006	90	n	x	0.9781867668325503	58	9	1	2021_Jun_16_1027	Motor	
0.0165	1	0.0165	0	n	n	0.7261261524172369	59	9	1	2021_Jun_16_1027	Motor	
0.025	1	0.010150000000000006	0	n	n	0.650736368456819	60	9	1	2021_Jun_16_1027	Motor	
0.025	1	0.010150000000000006	90	x	x	0.8426088021697069	61	9	1	2021_Jun_16_1027	Motor	
0.0165	1	0.0165	0	n	n	0.6994165960431928	62	9	1	2021_Jun_16_1027	Motor	
0.0165	1	0.0165	0	n	n	0.5862424492133869	63	9	1	2021_Jun_16_1027	Motor	
0.025	1	0.010150000000000006	0	n	n	0.773235071513227	64	9	1	2021_Jun_16_1027	Motor	
0.025	1	0.008500000000000006	90	x	x	0.6239669088272422	65	9	1	2021_Jun_16_1027	Motor	
0.0165	1	0.01485	90	x	x	0.8856481397933749	66	9	1	2021_Jun_16_1027	Motor	
0.025	1	0.008500000000000006	0	n	n	0.6046112451467707	67	9	1	2021_Jun_16_1027	Motor	
0.0165	1	0.01485	90	x	x	0.6983490892980626	68	9	1	2021_Jun_16_1027	Motor	
0.025	1	0.008500000000000006	0	n	n	0.7201665464126563	69	9	1	2021_Jun_16_1027	Motor	
0.0165	1	0.01485	0	n	n	0.582034245462637	70	9	1	2021_Jun_16_1027	Motor	
0.025	0	0.006850000000000005	0	x	n	0.6567616376469232	71	9	1	2021_Jun_16_1027	Motor	
0.0165	1	0.0132	0	n	n	0.6367163185304889	72	9	1	2021_Jun_16_1027	Motor	
0.0165	1	0.0132	0	n	n	0.5054479323580381	73	9	1	2021_Jun_16_1027	Motor	
0.025	1	0.008500000000000006	0	n	n	0.7032300526952895	74	9	1	2021_Jun_16_1027	Motor	
0.0165	1	0.0132	0	n	n	0.6501500077374658	75	9	1	2021_Jun_16_1027	Motor	
0.025	1	0.008500000000000006	0	n	n	0.5539085146720026	76	9	1	2021_Jun_16_1027	Motor	
0.0165	1	0.01155	90	x	x	0.6509844293768765	77	9	1	2021_Jun_16_1027	Motor	
0.025	1	0.008500000000000006	0	n	n	0.5967113112328661	78	9	1	2021_Jun_16_1027	Motor	
0.025	0	0.006850000000000005	90	n	x	0.8624360119938501	79	9	1	2021_Jun_16_1027	Motor	
0.0165	1	0.01155	90	x	x	0.710266765328015	80	9	1	2021_Jun_16_1027	Motor	
0.025	1	0.008500000000000006	0	n	n	0.744130536875673	81	9	1	2021_Jun_16_1027	Motor	
0.0165	1	0.01155	0	n	n	0.9011646191402178	82	9	1	2021_Jun_16_1027	Motor	
0.025	0	0.008500000000000006	90	n	x	0.7627539216473451	83	9	1	2021_Jun_16_1027	Motor	
0.0165	0	0.009899999999999999	90	n	x	0.9667072293632373	84	9	1	2021_Jun_16_1027	Motor	
0.0165	1	0.01155	90	x	x	0.7773941238747284	85	9	1	2021_Jun_16_1027	Motor	
0.025	1	0.010150000000000006	90	x	x	0.7611933650232459	86	9	1	2021_Jun_16_1027	Motor	
0.0165	1	0.01155	0	n	n	0.5650881518658935	87	9	1	2021_Jun_16_1027	Motor	
0.025	1	0.010150000000000006	90	x	x	0.7488229586142552	88	9	1	2021_Jun_16_1027	Motor	
0.0165	1	0.01155	90	x	x	0.588657395230257	89	9	1	2021_Jun_16_1027	Motor	
0.025	1	0.010150000000000006	90	x	x	0.6475042805868725	90	9	1	2021_Jun_16_1027	Motor	
0.0165	0	0.009899999999999999	0	x	n	0.8512870944186943	91	9	1	2021_Jun_16_1027	Motor	
0.025	1	0.008500000000000006	90	x	x	0.6562232763317297	92	9	1	2021_Jun_16_1027	Motor	
0.025	0	0.008500000000000006	90	n	x	0.5690413827824159	93	9	1	2021_Jun_16_1027	Motor	
0.0165	0	0.01155	90	n	x	0.647863700124617	94	9	1	2021_Jun_16_1027	Motor	
0.0165	1	0.0132	0	n	n	0.6316034220117217	95	9	1	2021_Jun_16_1027	Motor	
0.025	0	0.010150000000000006	90	n	x	0.6444265587997506	96	9	1	2021_Jun_16_1027	Motor	
