subject_id,trial,effector_order,block,condition,stim1,gabor.contrast,pressed_gabor,expected_gabor,pressed_cue,expected_cue,rt_gabor,rt_cue,accuracy_gabor,accuracy_cue,congruency,SDT,pressed_conf,conf,rt_conf,trial_start_time_rel2bloc,bloc_start_time_rel2exp,exp_start_date,effector
2,1,feet1,1,cue,white,-1,-1,-1,c,c,-1,0.3200082328294229,-1,1,none,none,-1,-1,-1,0,20057,11:53:28.961229,feet
2,2,feet1,1,cue,white,-1,-1,-1,c,c,-1,0.2348610402855229,-1,1,none,none,-1,-1,-1,2717,20057,11:53:28.961229,feet
2,3,feet1,1,cue,white,-1,-1,-1,c,c,-1,0.38461290342411303,-1,1,none,none,-1,-1,-1,5383,20057,11:53:28.961229,feet
2,4,feet1,1,cue,black,-1,-1,-1,q,q,-1,0.2714737071696618,-1,1,none,none,-1,-1,-1,8200,20057,11:53:28.961229,feet
2,5,feet1,1,cue,black,-1,-1,-1,q,q,-1,0.3162773480457872,-1,1,none,none,-1,-1,-1,10900,20057,11:53:28.961229,feet
2,6,feet1,1,cue,black,-1,-1,-1,q,q,-1,0.3499812610975823,-1,1,none,none,-1,-1,-1,13649,20057,11:53:28.961229,feet
2,7,feet1,1,gabor,0,0.014601528380162545,3,3,-1,c,0.6798915447616309,-1,1,-1,incongruent,hit,c,4,0.835875244988074,16333,20057,11:53:28.961229,feet
2,8,feet1,1,cue,black,-1,-1,-1,q,q,-1,0.3174992166523225,-1,1,none,none,-1,-1,-1,24867,20057,11:53:28.961229,feet
2,9,feet1,1,cue,white,-1,-1,-1,c,c,-1,0.27623446360667003,-1,1,none,none,-1,-1,-1,27516,20057,11:53:28.961229,feet
2,10,feet1,1,cue,white,-1,-1,-1,c,c,-1,0.2832607840846322,-1,1,none,none,-1,-1,-1,30333,20057,11:53:28.961229,feet
2,11,feet1,1,cue,white,-1,-1,-1,c,c,-1,0.33499244299991915,-1,1,none,none,-1,-1,-1,33049,20057,11:53:28.961229,feet
2,12,feet1,1,cue,white,-1,-1,-1,c,c,-1,0.3997695268581083,-1,1,none,none,-1,-1,-1,35815,20057,11:53:28.961229,feet
2,13,feet1,1,cue,white,-1,-1,-1,c,c,-1,0.2746789042967066,-1,1,none,none,-1,-1,-1,38750,20057,11:53:28.961229,feet
2,14,feet1,1,gabor,90,0.014601528380162545,3,4,-1,c,0.4875105982318928,-1,0,-1,incongruent,FA,3,2,1.5464759343335572,41567,20057,11:53:28.961229,feet
2,15,feet1,1,gabor,0,0.014601528380162545,3,3,-1,q,0.5971535299790958,-1,1,-1,congruent,hit,q,4,1.1441301923655374,46932,20057,11:53:28.961229,feet
2,16,feet1,1,cue,black,-1,-1,-1,q,q,-1,0.48111325977060915,-1,1,none,none,-1,-1,-1,51998,20057,11:53:28.961229,feet
2,17,feet1,1,gabor,90,0.014601528380162545,3,4,-1,q,0.6037217457287625,-1,0,-1,congruent,FA,4,1,1.8316455521216994,55016,20057,11:53:28.961229,feet
2,18,feet1,1,cue,white,-1,-1,-1,c,c,-1,0.2993681764282883,-1,1,none,none,-1,-1,-1,64364,20057,11:53:28.961229,feet
2,19,feet1,1,gabor,90,0.014601528380162545,3,4,-1,q,0.4881115486937233,-1,0,-1,congruent,FA,c,2,1.8629832947290197,67098,20057,11:53:28.961229,feet
2,20,feet1,1,gabor,90,0.014601528380162545,3,4,-1,q,0.5377596566786451,-1,0,-1,congruent,FA,q,2,1.30568487616938,72781,20057,11:53:28.961229,feet
2,21,feet1,1,cue,black,-1,-1,-1,q,q,-1,0.2994618709412862,-1,1,none,none,-1,-1,-1,77964,20057,11:53:28.961229,feet
2,22,feet1,1,cue,black,-1,-1,-1,q,q,-1,0.3023521930658717,-1,1,none,none,-1,-1,-1,80697,20057,11:53:28.961229,feet
2,23,feet1,1,gabor,0,0.014601528380162545,3,3,-1,c,0.6131595479319003,-1,1,-1,incongruent,hit,c,3,1.4331896684138883,83330,20057,11:53:28.961229,feet
2,24,feet1,1,cue,black,-1,-1,-1,q,q,-1,0.2779793319118653,-1,1,none,none,-1,-1,-1,88730,20057,11:53:28.961229,feet
2,25,feet1,1,gabor,90,0.014601528380162545,3,4,-1,c,0.5457582497251678,-1,0,-1,incongruent,FA,4,2,1.5236536405691368,91348,20057,11:53:28.961229,feet
2,26,feet1,1,cue,white,-1,-1,-1,c,c,-1,0.3243838433795645,-1,1,none,none,-1,-1,-1,96764,20057,11:53:28.961229,feet
2,27,feet1,1,cue,black,-1,-1,-1,q,q,-1,0.3212427732346441,-1,1,none,none,-1,-1,-1,99430,20057,11:53:28.961229,feet
2,28,feet1,1,gabor,0,0.014601528380162545,3,3,-1,q,0.4832398180178643,-1,1,-1,congruent,hit,4,2,3.023026578522149,102281,20057,11:53:28.961229,feet
2,29,feet1,1,cue,white,-1,-1,-1,c,c,-1,0.3296541597292162,-1,1,none,none,-1,-1,-1,109030,20057,11:53:28.961229,feet
2,30,feet1,1,cue,white,-1,-1,-1,c,c,-1,0.3584537026226826,-1,1,none,none,-1,-1,-1,114729,20057,11:53:28.961229,feet
2,31,feet1,1,cue,black,-1,-1,-1,q,q,-1,0.28624249675931424,-1,1,none,none,-1,-1,-1,117530,20057,11:53:28.961229,feet
2,32,feet1,1,cue,black,-1,-1,-1,q,q,-1,0.29089535090906793,-1,1,none,none,-1,-1,-1,124012,20057,11:53:28.961229,feet
2,33,feet1,1,gabor,90,0.014601528380162545,3,4,-1,c,0.4176402192142632,-1,0,-1,incongruent,FA,c,2,1.2574901851157847,126747,20057,11:53:28.961229,feet
2,34,feet1,1,gabor,0,0.014601528380162545,3,3,-1,c,0.5292814552449272,-1,1,-1,incongruent,hit,q,3,1.0892897187936796,131847,20057,11:53:28.961229,feet
2,35,feet1,1,cue,black,-1,-1,-1,q,q,-1,0.3562081062650577,-1,1,none,none,-1,-1,-1,136795,20057,11:53:28.961229,feet
2,36,feet1,1,gabor,0,0.014601528380162545,3,3,-1,q,0.48201218950225666,-1,1,-1,congruent,hit,3,3,1.0848845407126646,139495,20057,11:53:28.961229,feet
2,37,feet1,2,gabor,0,0.014601528380162545,3,3,-1,q,0.46911306623769633,-1,1,-1,congruent,hit,3,3,0.8799258738163189,156712,20057,11:53:28.961229,feet
2,38,feet1,2,cue,black,-1,-1,-1,q,q,-1,0.34667929750639814,-1,1,none,none,-1,-1,-1,161445,20057,11:53:28.961229,feet
2,39,feet1,2,gabor,0,0.014601528380162545,3,3,-1,q,0.46255406634190877,-1,1,-1,congruent,hit,q,2,1.057475439749851,164330,20057,11:53:28.961229,feet
2,40,feet1,2,cue,white,-1,-1,-1,c,c,-1,0.4973788576030529,-1,1,none,none,-1,-1,-1,169295,20057,11:53:28.961229,feet
2,41,feet1,2,gabor,90,0.014601528380162545,3,4,-1,q,0.5830962810960045,-1,0,-1,congruent,FA,4,3,1.6441301923655374,172329,20057,11:53:28.961229,feet
2,42,feet1,2,gabor,90,0.014601528380162545,4,4,-1,c,0.5776888789223449,-1,1,-1,congruent,CR,q,1,1.907659065635471,177778,20057,11:53:28.961229,feet
2,43,feet1,2,gabor,0,0.014601528380162545,3,3,-1,q,0.47541171826514983,-1,1,-1,congruent,hit,4,4,1.3023015058702185,183494,20057,11:53:28.961229,feet
2,44,feet1,2,gabor,0,0.014601528380162545,3,3,-1,c,0.6141667639453772,-1,1,-1,incongruent,hit,4,4,0.9701137543543155,188711,20057,11:53:28.961229,feet
2,45,feet1,2,gabor,90,0.014601528380162545,3,4,-1,q,0.5567988424891155,-1,0,-1,congruent,FA,4,3,0.9687728476374105,193643,20057,11:53:28.961229,feet
2,46,feet1,2,gabor,90,0.014601528380162545,3,4,-1,c,0.7855040764793557,-1,0,-1,incongruent,FA,q,2,2.87036596155167,198510,20057,11:53:28.961229,feet
2,47,feet1,2,gabor,90,0.014601528380162545,3,4,-1,q,0.5582000362492181,-1,0,-1,congruent,FA,q,3,2.3202075256663193,205510,20057,11:53:28.961229,feet
2,48,feet1,2,cue,white,-1,-1,-1,c,c,-1,0.38880688485733117,-1,1,none,none,-1,-1,-1,211827,20057,11:53:28.961229,feet
2,49,feet1,2,gabor,0,0.014601528380162545,3,3,-1,c,0.6016285949508529,-1,1,-1,incongruent,hit,4,3,1.3946616399302911,214643,20057,11:53:28.961229,feet
2,50,feet1,2,cue,black,-1,-1,-1,q,q,-1,0.6352918046486593,-1,1,none,none,-1,-1,-1,220078,20057,11:53:28.961229,feet
2,51,feet1,2,cue,black,-1,-1,-1,q,q,-1,0.30921877207947546,-1,1,none,none,-1,-1,-1,223042,20057,11:53:28.961229,feet
2,52,feet1,2,cue,white,-1,-1,-1,c,c,-1,0.3321466641682491,-1,1,none,none,-1,-1,-1,225676,20057,11:53:28.961229,feet
2,53,feet1,2,cue,black,-1,-1,-1,q,q,-1,0.3649013442859541,-1,1,none,none,-1,-1,-1,228442,20057,11:53:28.961229,feet
2,54,feet1,2,cue,black,-1,-1,-1,q,q,-1,0.29267977058680117,-1,1,none,none,-1,-1,-1,231243,20057,11:53:28.961229,feet
2,55,feet1,2,cue,black,-1,-1,-1,q,q,-1,0.3125599030495323,-1,1,none,none,-1,-1,-1,233959,20057,11:53:28.961229,feet
2,56,feet1,2,cue,black,-1,-1,-1,q,q,-1,0.2543521869220058,-1,1,none,none,-1,-1,-1,236609,20057,11:53:28.961229,feet
2,57,feet1,2,cue,black,-1,-1,-1,q,q,-1,0.2552872120813845,-1,1,none,none,-1,-1,-1,239192,20057,11:53:28.961229,feet
2,58,feet1,2,cue,white,-1,-1,-1,c,c,-1,0.30796887191763744,-1,1,none,none,-1,-1,-1,241875,20057,11:53:28.961229,feet
2,59,feet1,2,cue,white,-1,-1,-1,c,c,-1,0.3257765892740281,-1,1,none,none,-1,-1,-1,247442,20057,11:53:28.961229,feet
2,60,feet1,2,cue,white,-1,-1,-1,c,c,-1,0.33162865638996664,-1,1,none,none,-1,-1,-1,250092,20057,11:53:28.961229,feet
2,61,feet1,2,cue,white,-1,-1,-1,c,c,-1,0.3854192906251228,-1,1,none,none,-1,-1,-1,252960,20057,11:53:28.961229,feet
2,62,feet1,2,cue,black,-1,-1,-1,q,q,-1,0.296249377930053,-1,1,none,none,-1,-1,-1,255775,20057,11:53:28.961229,feet
2,63,feet1,2,cue,white,-1,-1,-1,c,c,-1,0.2952352500260531,-1,1,none,none,-1,-1,-1,258610,20057,11:53:28.961229,feet
2,64,feet1,2,cue,white,-1,-1,-1,c,c,-1,0.284829015194191,-1,1,none,none,-1,-1,-1,264274,20057,11:53:28.961229,feet
2,65,feet1,2,gabor,0,0.014601528380162545,3,3,-1,c,0.6545444910698279,-1,1,-1,incongruent,hit,c,2,1.2795149235394092,267093,20057,11:53:28.961229,feet
2,66,feet1,2,cue,white,-1,-1,-1,c,c,-1,0.3343246775989428,-1,1,none,none,-1,-1,-1,272442,20057,11:53:28.961229,feet
2,67,feet1,2,cue,white,-1,-1,-1,c,c,-1,0.3042475869824557,-1,1,none,none,-1,-1,-1,275207,20057,11:53:28.961229,feet
2,68,feet1,2,gabor,90,0.014601528380162545,3,4,-1,c,0.4849992780914363,-1,0,-1,incongruent,FA,4,2,1.3590055018648854,277841,20057,11:53:28.961229,feet
2,69,feet1,2,cue,black,-1,-1,-1,q,q,-1,0.25185507455626066,-1,1,none,none,-1,-1,-1,283125,20057,11:53:28.961229,feet
2,70,feet1,2,cue,white,-1,-1,-1,c,c,-1,0.4034946517326716,-1,1,none,none,-1,-1,-1,285909,20057,11:53:28.961229,feet
2,71,feet1,2,cue,black,-1,-1,-1,q,q,-1,0.3154628969728037,-1,1,none,none,-1,-1,-1,288741,20057,11:53:28.961229,feet
2,72,feet1,2,cue,black,-1,-1,-1,q,q,-1,0.33722421557740745,-1,1,none,none,-1,-1,-1,291390,20057,11:53:28.961229,feet
2,73,feet1,3,gabor,90,0.014601528380162545,4,4,-1,c,0.6041660266764666,-1,1,-1,congruent,CR,4,1,1.017175663388116,309756,20057,11:53:28.961229,feet
2,74,feet1,3,cue,black,-1,-1,-1,q,q,-1,0.3309247955612591,-1,1,none,none,-1,-1,-1,314773,20057,11:53:28.961229,feet
2,75,feet1,3,cue,white,-1,-1,-1,c,c,-1,0.2958362004878836,-1,1,none,none,-1,-1,-1,317441,20057,11:53:28.961229,feet
2,76,feet1,3,cue,black,-1,-1,-1,q,q,-1,0.2625911601530788,-1,1,none,none,-1,-1,-1,320274,20057,11:53:28.961229,feet
2,77,feet1,3,cue,white,-1,-1,-1,c,c,-1,0.2544742969839717,-1,1,none,none,-1,-1,-1,323074,20057,11:53:28.961229,feet
2,78,feet1,3,cue,white,-1,-1,-1,c,c,-1,0.2512391483319334,-1,1,none,none,-1,-1,-1,325756,20057,11:53:28.961229,feet
2,79,feet1,3,cue,white,-1,-1,-1,c,c,-1,0.25216841358314923,-1,1,none,none,-1,-1,-1,328339,20057,11:53:28.961229,feet
2,80,feet1,3,cue,black,-1,-1,-1,q,q,-1,0.2810397633370485,-1,1,none,none,-1,-1,-1,331022,20057,11:53:28.961229,feet
2,81,feet1,3,cue,black,-1,-1,-1,q,q,-1,0.3089027450955655,-1,1,none,none,-1,-1,-1,333739,20057,11:53:28.961229,feet
2,82,feet1,3,gabor,90,0.014601528380162545,3,4,-1,q,0.5797317264978119,-1,0,-1,congruent,FA,4,3,0.849618002862826,336473,20057,11:53:28.961229,feet
2,83,feet1,3,cue,black,-1,-1,-1,q,q,-1,0.3325064664572892,-1,1,none,none,-1,-1,-1,341155,20057,11:53:28.961229,feet
2,84,feet1,3,cue,black,-1,-1,-1,q,q,-1,0.2852414246481203,-1,1,none,none,-1,-1,-1,343922,20057,11:53:28.961229,feet
2,85,feet1,3,cue,black,-1,-1,-1,q,q,-1,0.30121480311845517,-1,1,none,none,-1,-1,-1,346538,20057,11:53:28.961229,feet
2,86,feet1,3,cue,white,-1,-1,-1,c,c,-1,0.2600141770553819,-1,1,none,none,-1,-1,-1,349172,20057,11:53:28.961229,feet
2,87,feet1,3,gabor,90,0.014601528380162545,3,4,-1,c,0.7035302095687257,-1,0,-1,incongruent,FA,c,1,1.3406970564560652,351957,20057,11:53:28.961229,feet
2,88,feet1,3,cue,black,-1,-1,-1,q,q,-1,0.30557658988846015,-1,1,none,none,-1,-1,-1,357239,20057,11:53:28.961229,feet
2,89,feet1,3,cue,white,-1,-1,-1,c,c,-1,0.36033796071615143,-1,1,none,none,-1,-1,-1,359872,20057,11:53:28.961229,feet
2,90,feet1,3,gabor,0,0.014601528380162545,3,3,-1,q,0.5342349766224288,-1,1,-1,congruent,hit,q,3,1.452099832271415,362555,20057,11:53:28.961229,feet
2,91,feet1,3,cue,black,-1,-1,-1,q,q,-1,0.3320268580696393,-1,1,none,none,-1,-1,-1,367771,20057,11:53:28.961229,feet
2,92,feet1,3,gabor,0,0.014601528380162545,3,3,-1,q,0.503807683564446,-1,1,-1,congruent,hit,c,3,0.86665888439029,370639,20057,11:53:28.961229,feet
2,93,feet1,3,gabor,0,0.014601528380162545,3,3,-1,c,0.7104229001674867,-1,1,-1,incongruent,hit,q,2,1.121406585034947,375254,20057,11:53:28.961229,feet
2,94,feet1,3,gabor,0,0.014601528380162545,3,3,-1,q,0.5502813139351019,-1,1,-1,congruent,hit,q,3,4.957013802276833,380522,20057,11:53:28.961229,feet
2,95,feet1,3,gabor,0,0.014601528380162545,4,3,-1,c,0.6736819793195536,-1,0,-1,congruent,miss,3,1,1.2696194006007318,389371,20057,11:53:28.961229,feet
2,96,feet1,3,cue,white,-1,-1,-1,c,c,-1,0.2813699980952151,-1,1,none,none,-1,-1,-1,394654,20057,11:53:28.961229,feet
2,97,feet1,3,cue,black,-1,-1,-1,q,q,-1,0.29723432229684477,-1,1,none,none,-1,-1,-1,397471,20057,11:53:28.961229,feet
2,98,feet1,3,cue,black,-1,-1,-1,q,q,-1,0.2961238119232803,-1,1,none,none,-1,-1,-1,400103,20057,11:53:28.961229,feet
2,99,feet1,3,cue,white,-1,-1,-1,c,c,-1,0.29497298218893775,-1,1,none,none,-1,-1,-1,402737,20057,11:53:28.961229,feet
2,100,feet1,3,cue,white,-1,-1,-1,c,c,-1,0.3017535465673973,-1,1,none,none,-1,-1,-1,405572,20057,11:53:28.961229,feet
2,101,feet1,3,gabor,90,0.014601528380162545,3,4,-1,c,0.5675479838787396,-1,0,-1,incongruent,FA,c,3,1.278521531306069,408304,20057,11:53:28.961229,feet
2,102,feet1,3,gabor,0,0.014601528380162545,3,3,-1,c,0.47436687084928053,-1,1,-1,incongruent,hit,c,3,1.5193003016656803,413386,20057,11:53:28.961229,feet
2,103,feet1,3,cue,white,-1,-1,-1,c,c,-1,0.3240217371271683,-1,1,none,none,-1,-1,-1,418620,20057,11:53:28.961229,feet
2,104,feet1,3,gabor,90,0.014601528380162545,3,4,-1,q,0.42485853664493334,-1,0,-1,congruent,FA,3,2,1.4837528338748598,421269,20057,11:53:28.961229,feet
2,105,feet1,3,gabor,90,0.014601528380162545,3,4,-1,q,0.5695543520332649,-1,0,-1,congruent,FA,3,4,1.2224837647377171,426420,20057,11:53:28.961229,feet
2,106,feet1,3,cue,black,-1,-1,-1,q,q,-1,0.2672213586624821,-1,1,none,none,-1,-1,-1,431452,20057,11:53:28.961229,feet
2,107,feet1,3,cue,white,-1,-1,-1,c,c,-1,0.2711361765263973,-1,1,none,none,-1,-1,-1,434152,20057,11:53:28.961229,feet
2,108,feet1,3,cue,white,-1,-1,-1,c,c,-1,0.23108292425149557,-1,1,none,none,-1,-1,-1,436953,20057,11:53:28.961229,feet
2,109,feet1,4,cue,black,-1,-1,-1,q,q,-1,0.2575339604209148,-1,1,none,none,-1,-1,-1,462303,20057,11:53:28.961229,feet
2,110,feet1,4,cue,black,-1,-1,-1,q,q,-1,0.3263418283027022,-1,1,none,none,-1,-1,-1,464985,20057,11:53:28.961229,feet
2,111,feet1,4,cue,white,-1,-1,-1,c,c,-1,0.2491371656951742,-1,1,none,none,-1,-1,-1,467735,20057,11:53:28.961229,feet
2,112,feet1,4,cue,white,-1,-1,-1,c,c,-1,0.23311348402285148,-1,1,none,none,-1,-1,-1,470318,20057,11:53:28.961229,feet
2,113,feet1,4,cue,black,-1,-1,-1,q,q,-1,0.23890104016254554,-1,1,none,none,-1,-1,-1,472984,20057,11:53:28.961229,feet
2,114,feet1,4,cue,white,-1,-1,-1,c,c,-1,0.2567851723056265,-1,1,none,none,-1,-1,-1,475552,20057,11:53:28.961229,feet
2,115,feet1,4,cue,black,-1,-1,-1,q,q,-1,0.253626822435308,-1,1,none,none,-1,-1,-1,478235,20057,11:53:28.961229,feet
2,116,feet1,4,cue,white,-1,-1,-1,c,c,-1,0.2054263714726403,-1,1,none,none,-1,-1,-1,480818,20057,11:53:28.961229,feet
2,117,feet1,4,cue,black,-1,-1,-1,q,q,-1,0.25327508401778687,-1,1,none,none,-1,-1,-1,483451,20057,11:53:28.961229,feet
2,118,feet1,4,cue,black,-1,-1,-1,q,q,-1,0.341187416673165,-1,1,none,none,-1,-1,-1,486235,20057,11:53:28.961229,feet
2,119,feet1,4,cue,black,-1,-1,-1,q,q,-1,0.26587354005505404,-1,1,none,none,-1,-1,-1,491734,20057,11:53:28.961229,feet
2,120,feet1,4,cue,white,-1,-1,-1,c,c,-1,0.2696328403876578,-1,1,none,none,-1,-1,-1,494434,20057,11:53:28.961229,feet
2,121,feet1,4,gabor,0,0.014601528380162545,3,3,-1,q,0.4814546303523457,-1,1,-1,congruent,hit,3,3,0.9824587744142264,497034,20057,11:53:28.961229,feet
2,122,feet1,4,gabor,90,0.014601528380162545,3,4,-1,c,0.49434799370874316,-1,0,-1,incongruent,FA,c,2,1.330248966288309,501750,20057,11:53:28.961229,feet
2,123,feet1,4,gabor,90,0.014601528380162545,3,4,-1,q,0.5718752111965841,-1,0,-1,congruent,FA,3,1,0.9789955333831131,507018,20057,11:53:28.961229,feet
2,124,feet1,4,gabor,90,0.014601528380162545,3,4,-1,q,0.503615302617618,-1,0,-1,congruent,FA,3,2,0.9075373395671704,511884,20057,11:53:28.961229,feet
2,125,feet1,4,gabor,90,0.014601528380162545,3,4,-1,c,0.5552382912578651,-1,0,-1,incongruent,FA,c,3,1.288210849517327,519566,20057,11:53:28.961229,feet
2,126,feet1,4,cue,white,-1,-1,-1,c,c,-1,0.3259459305859309,-1,1,none,none,-1,-1,-1,524649,20057,11:53:28.961229,feet
2,127,feet1,4,cue,white,-1,-1,-1,c,c,-1,0.30775306734312835,-1,1,none,none,-1,-1,-1,527501,20057,11:53:28.961229,feet
2,128,feet1,4,gabor,0,0.014601528380162545,3,3,-1,c,0.46163171298121597,-1,1,-1,incongruent,hit,4,3,0.8435535871176398,530334,20057,11:53:28.961229,feet
2,129,feet1,4,cue,black,-1,-1,-1,q,q,-1,0.2813550223331731,-1,1,none,none,-1,-1,-1,534966,20057,11:53:28.961229,feet
2,130,feet1,4,gabor,0,0.014601528380162545,3,3,-1,q,0.30024598649561085,-1,1,-1,congruent,hit,q,2,1.8662460909422407,537783,20057,11:53:28.961229,feet
2,131,feet1,4,cue,white,-1,-1,-1,c,c,-1,0.27285570123422076,-1,1,none,none,-1,-1,-1,543399,20057,11:53:28.961229,feet
2,132,feet1,4,gabor,0,0.014601528380162545,3,3,-1,c,0.40064925689512165,-1,1,-1,incongruent,hit,4,2,1.1816383330360622,545999,20057,11:53:28.961229,feet
2,133,feet1,4,cue,black,-1,-1,-1,q,q,-1,0.5993611109406629,-1,1,none,none,-1,-1,-1,551033,20057,11:53:28.961229,feet
2,134,feet1,4,cue,black,-1,-1,-1,q,q,-1,0.31419341312175675,-1,1,none,none,-1,-1,-1,554166,20057,11:53:28.961229,feet
2,135,feet1,4,cue,white,-1,-1,-1,c,c,-1,0.2921383391803829,-1,1,none,none,-1,-1,-1,556915,20057,11:53:28.961229,feet
2,136,feet1,4,gabor,90,0.014601528380162545,3,4,-1,c,0.41598750944604035,-1,0,-1,incongruent,FA,4,3,1.6228872655333362,559631,20057,11:53:28.961229,feet
2,137,feet1,4,cue,white,-1,-1,-1,c,c,-1,0.32064182277326836,-1,1,none,none,-1,-1,-1,565015,20057,11:53:28.961229,feet
2,138,feet1,4,cue,black,-1,-1,-1,q,q,-1,0.3114417127972047,-1,1,none,none,-1,-1,-1,567866,20057,11:53:28.961229,feet
2,139,feet1,4,gabor,0,0.014601528380162545,3,3,-1,q,0.3252167261603063,-1,1,-1,congruent,hit,4,2,1.7493168748428616,570498,20057,11:53:28.961229,feet
2,140,feet1,4,gabor,90,0.014601528380162545,3,4,-1,q,0.7000297211279758,-1,0,-1,congruent,FA,c,1,1.4980308792542019,575814,20057,11:53:28.961229,feet
2,141,feet1,4,cue,black,-1,-1,-1,q,q,-1,0.39973112746747574,-1,1,none,none,-1,-1,-1,581466,20057,11:53:28.961229,feet
2,142,feet1,4,gabor,0,0.014601528380162545,3,3,-1,c,0.5364556133763472,-1,1,-1,incongruent,hit,c,3,1.1533683177381135,584198,20057,11:53:28.961229,feet
2,143,feet1,4,cue,white,-1,-1,-1,c,c,-1,0.57331634032289,-1,1,none,none,-1,-1,-1,589332,20057,11:53:28.961229,feet
2,144,feet1,4,cue,white,-1,-1,-1,c,c,-1,0.30513230893984655,-1,1,none,none,-1,-1,-1,592230,20057,11:53:28.961229,feet
2,145,feet1,5,gabor,0,0.014601528380162545,3,3,-1,c,0.4081144824067451,-1,1,-1,incongruent,hit,q,3,1.108337352469789,605281,20057,11:53:28.961229,feet
2,146,feet1,5,cue,white,-1,-1,-1,c,c,-1,0.2920707562525422,-1,1,none,none,-1,-1,-1,610163,20057,11:53:28.961229,feet
2,147,feet1,5,cue,black,-1,-1,-1,q,q,-1,0.33187863642251614,-1,1,none,none,-1,-1,-1,612980,20057,11:53:28.961229,feet
2,148,feet1,5,cue,white,-1,-1,-1,c,c,-1,0.28480213562033896,-1,1,none,none,-1,-1,-1,615747,20057,11:53:28.961229,feet
2,149,feet1,5,cue,white,-1,-1,-1,c,c,-1,0.2685783931237893,-1,1,none,none,-1,-1,-1,618565,20057,11:53:28.961229,feet
2,150,feet1,5,cue,white,-1,-1,-1,c,c,-1,0.2644185871481568,-1,1,none,none,-1,-1,-1,621263,20057,11:53:28.961229,feet
2,151,feet1,5,gabor,0,0.014601528380162545,3,3,-1,c,0.5222482228759873,-1,1,-1,incongruent,hit,4,2,0.9832398180174096,624064,20057,11:53:28.961229,feet
2,152,feet1,5,cue,black,-1,-1,-1,q,q,-1,0.29096139786088315,-1,1,none,none,-1,-1,-1,629013,20057,11:53:28.961229,feet
2,153,feet1,5,cue,black,-1,-1,-1,q,q,-1,0.2738168379792114,-1,1,none,none,-1,-1,-1,631630,20057,11:53:28.961229,feet
2,154,feet1,5,cue,white,-1,-1,-1,c,c,-1,0.2827850156363638,-1,1,none,none,-1,-1,-1,634230,20057,11:53:28.961229,feet
2,155,feet1,5,cue,black,-1,-1,-1,q,q,-1,0.2815239796509559,-1,1,none,none,-1,-1,-1,636846,20057,11:53:28.961229,feet
2,156,feet1,5,gabor,0,0.014601528380162545,3,3,-1,q,0.49129716213155916,-1,1,-1,congruent,hit,3,3,0.8012155711062405,639664,20057,11:53:28.961229,feet
2,157,feet1,5,cue,black,-1,-1,-1,q,q,-1,0.5400482603540695,-1,1,none,none,-1,-1,-1,644195,20057,11:53:28.961229,feet
2,158,feet1,5,cue,white,-1,-1,-1,c,c,-1,0.0010371675380156375,-1,1,none,none,-1,-1,-1,647263,20057,11:53:28.961229,feet
2,159,feet1,5,gabor,90,0.014601528380162545,3,4,-1,c,0.4817249620614348,-1,0,-1,incongruent,FA,3,3,0.8556190596141278,649797,20057,11:53:28.961229,feet
2,160,feet1,5,cue,white,-1,-1,-1,c,c,-1,0.34158830631076853,-1,1,none,none,-1,-1,-1,654580,20057,11:53:28.961229,feet
2,161,feet1,5,gabor,90,0.014601528380162545,3,4,-1,c,0.5183560606524225,-1,0,-1,incongruent,FA,c,3,0.8743237867329299,657446,20057,11:53:28.961229,feet
2,162,feet1,5,gabor,0,0.014601528380162545,3,3,-1,q,0.40892470954713644,-1,1,-1,congruent,hit,c,4,0.8059425360797832,662279,20057,11:53:28.961229,feet
2,163,feet1,5,cue,white,-1,-1,-1,c,c,-1,0.25480875567518524,-1,1,none,none,-1,-1,-1,666729,20057,11:53:28.961229,feet
2,164,feet1,5,gabor,0,0.014601528380162545,3,3,-1,q,0.44759059184207217,-1,1,-1,congruent,hit,c,4,0.6265755269932924,669513,20057,11:53:28.961229,feet
2,165,feet1,5,cue,white,-1,-1,-1,c,c,-1,0.2673814841209605,-1,1,none,none,-1,-1,-1,673828,20057,11:53:28.961229,feet
2,166,feet1,5,cue,black,-1,-1,-1,q,q,-1,0.6362425735578654,-1,1,none,none,-1,-1,-1,676629,20057,11:53:28.961229,feet
2,167,feet1,5,gabor,90,0.014601528380162545,3,4,-1,q,0.38312838298634233,-1,0,-1,congruent,FA,4,3,0.7459373444826269,679694,20057,11:53:28.961229,feet
2,168,feet1,5,cue,black,-1,-1,-1,q,q,-1,0.2907966644752378,-1,1,none,none,-1,-1,-1,684062,20057,11:53:28.961229,feet
2,169,feet1,5,cue,black,-1,-1,-1,q,q,-1,0.3107478358106164,-1,1,none,none,-1,-1,-1,686778,20057,11:53:28.961229,feet
2,170,feet1,5,gabor,90,0.014601528380162545,3,4,-1,q,0.4134823332083215,-1,0,-1,congruent,FA,3,1,0.7333995594822227,689511,20057,11:53:28.961229,feet
2,171,feet1,5,cue,black,-1,-1,-1,q,q,-1,0.30524597113617347,-1,1,none,none,-1,-1,-1,693894,20057,11:53:28.961229,feet
2,172,feet1,5,cue,white,-1,-1,-1,c,c,-1,0.3201564544770008,-1,1,none,none,-1,-1,-1,696728,20057,11:53:28.961229,feet
2,173,feet1,5,cue,white,-1,-1,-1,c,c,-1,0.2750076030793025,-1,1,none,none,-1,-1,-1,699477,20057,11:53:28.961229,feet
2,174,feet1,5,cue,black,-1,-1,-1,q,q,-1,0.28280690328847413,-1,1,none,none,-1,-1,-1,702078,20057,11:53:28.961229,feet
2,175,feet1,5,cue,white,-1,-1,-1,c,c,-1,0.27368858401496254,-1,1,none,none,-1,-1,-1,704895,20057,11:53:28.961229,feet
2,176,feet1,5,cue,black,-1,-1,-1,q,q,-1,0.29744628693242703,-1,1,none,none,-1,-1,-1,707695,20057,11:53:28.961229,feet
2,177,feet1,5,gabor,90,0.014601528380162545,3,4,-1,q,0.5021833893451912,-1,0,-1,congruent,FA,3,3,0.8572187782233414,710528,20057,11:53:28.961229,feet
2,178,feet1,5,cue,black,-1,-1,-1,q,q,-1,0.26501569767060573,-1,1,none,none,-1,-1,-1,715327,20057,11:53:28.961229,feet
2,179,feet1,5,gabor,90,0.014601528380162545,3,4,-1,c,0.5888058864729828,-1,0,-1,incongruent,FA,c,3,1.5418273041168504,718127,20057,11:53:28.961229,feet
2,180,feet1,5,gabor,0,0.014601528380162545,3,3,-1,c,0.5055794314434934,-1,1,-1,incongruent,hit,c,2,1.7955290053637327,723493,20057,11:53:28.961229,feet
2,181,feet1,6,cue,white,-1,-1,-1,c,c,-1,0.2881133150654023,-1,1,none,none,-1,-1,-1,749975,20057,11:53:28.961229,feet
2,182,feet1,6,gabor,90,0.014601528380162545,3,4,-1,c,0.5488405688024613,-1,0,-1,incongruent,FA,q,2,1.005833251414515,752792,20057,11:53:28.961229,feet
2,183,feet1,6,cue,black,-1,-1,-1,q,q,-1,0.2677132548551526,-1,1,none,none,-1,-1,-1,757692,20057,11:53:28.961229,feet
2,184,feet1,6,cue,white,-1,-1,-1,c,c,-1,0.28348234856821364,-1,1,none,none,-1,-1,-1,760493,20057,11:53:28.961229,feet
2,185,feet1,6,cue,black,-1,-1,-1,q,q,-1,0.26727166186446993,-1,1,none,none,-1,-1,-1,763309,20057,11:53:28.961229,feet
2,186,feet1,6,cue,white,-1,-1,-1,c,c,-1,0.2432324914138917,-1,1,none,none,-1,-1,-1,766109,20057,11:53:28.961229,feet
2,187,feet1,6,cue,black,-1,-1,-1,q,q,-1,0.32391959474807663,-1,1,none,none,-1,-1,-1,771509,20057,11:53:28.961229,feet
2,188,feet1,6,cue,black,-1,-1,-1,q,q,-1,0.2776633049279553,-1,1,none,none,-1,-1,-1,774258,20057,11:53:28.961229,feet
2,189,feet1,6,cue,black,-1,-1,-1,q,q,-1,0.2735130987998673,-1,1,none,none,-1,-1,-1,776958,20057,11:53:28.961229,feet
2,190,feet1,6,cue,white,-1,-1,-1,c,c,-1,0.3293435086598038,-1,1,none,none,-1,-1,-1,779558,20057,11:53:28.961229,feet
2,191,feet1,6,cue,white,-1,-1,-1,c,c,-1,0.22326288837120956,-1,1,none,none,-1,-1,-1,782426,20057,11:53:28.961229,feet
2,192,feet1,6,cue,black,-1,-1,-1,q,q,-1,0.321109527349563,-1,1,none,none,-1,-1,-1,785175,20057,11:53:28.961229,feet
2,193,feet1,6,cue,white,-1,-1,-1,c,c,-1,0.2870193164289958,-1,1,none,none,-1,-1,-1,787824,20057,11:53:28.961229,feet
2,194,feet1,6,gabor,0,0.014601528380162545,3,3,-1,c,0.4536626874655667,-1,1,-1,incongruent,hit,3,4,0.9637571192470205,790541,20057,11:53:28.961229,feet
2,195,feet1,6,cue,white,-1,-1,-1,c,c,-1,0.2935456768432232,-1,1,none,none,-1,-1,-1,795291,20057,11:53:28.961229,feet
2,196,feet1,6,cue,white,-1,-1,-1,c,c,-1,0.25627983632648466,-1,1,none,none,-1,-1,-1,798007,20057,11:53:28.961229,feet
2,197,feet1,6,gabor,0,0.014601528380162545,3,3,-1,q,0.500172413263499,-1,1,-1,congruent,hit,4,3,0.9571071127961659,800792,20057,11:53:28.961229,feet
2,198,feet1,6,cue,black,-1,-1,-1,q,q,-1,0.28608237130038106,-1,1,none,none,-1,-1,-1,805474,20057,11:53:28.961229,feet
2,199,feet1,6,gabor,0,0.014601528380162545,3,3,-1,q,0.38345400981779676,-1,1,-1,congruent,hit,q,2,1.7884658214707088,811857,20057,11:53:28.961229,feet
2,200,feet1,6,cue,white,-1,-1,-1,c,c,-1,0.33526469467915376,-1,1,none,none,-1,-1,-1,817257,20057,11:53:28.961229,feet
2,201,feet1,6,cue,black,-1,-1,-1,q,q,-1,0.30983585028570815,-1,1,none,none,-1,-1,-1,823689,20057,11:53:28.961229,feet
2,202,feet1,6,cue,black,-1,-1,-1,q,q,-1,0.2766779765670435,-1,1,none,none,-1,-1,-1,826524,20057,11:53:28.961229,feet
2,203,feet1,6,gabor,90,0.014601528380162545,3,4,-1,q,0.5005203117411838,-1,0,-1,congruent,FA,c,3,1.3414224209432177,829123,20057,11:53:28.961229,feet
2,204,feet1,6,cue,white,-1,-1,-1,c,c,-1,0.46639554137027517,-1,1,none,none,-1,-1,-1,834206,20057,11:53:28.961229,feet
2,205,feet1,6,gabor,90,0.014601528380162545,3,4,-1,c,0.6271054385824755,-1,0,-1,incongruent,FA,3,2,2.171140323660893,837006,20057,11:53:28.961229,feet
2,206,feet1,6,cue,black,-1,-1,-1,q,q,-1,0.5837444628077719,-1,1,none,none,-1,-1,-1,843056,20057,11:53:28.961229,feet
2,207,feet1,6,cue,white,-1,-1,-1,c,c,-1,0.3395408508076798,-1,1,none,none,-1,-1,-1,845973,20057,11:53:28.961229,feet
2,208,feet1,6,cue,black,-1,-1,-1,q,q,-1,0.3044223042093108,-1,1,none,none,-1,-1,-1,848840,20057,11:53:28.961229,feet
2,209,feet1,6,gabor,0,0.014601528380162545,3,3,-1,c,0.5371782899064783,-1,1,-1,incongruent,hit,3,1,1.0672665163456259,851572,20057,11:53:28.961229,feet
2,210,feet1,6,cue,white,-1,-1,-1,c,c,-1,0.34274182400167774,-1,1,none,none,-1,-1,-1,860090,20057,11:53:28.961229,feet
2,211,feet1,6,gabor,0,0.014601528380162545,3,3,-1,c,0.4756367386939928,-1,1,-1,incongruent,hit,c,2,1.3145224958989274,862855,20057,11:53:28.961229,feet
2,212,feet1,6,cue,black,-1,-1,-1,q,q,-1,0.31722197305316513,-1,1,none,none,-1,-1,-1,871755,20057,11:53:28.961229,feet
2,213,feet1,6,gabor,90,0.014601528380162545,3,4,-1,c,0.41489504678565936,-1,0,-1,incongruent,FA,4,1,2.2298380160109446,874505,20057,11:53:28.961229,feet
2,214,feet1,6,gabor,90,0.014601528380162545,4,4,-1,q,0.30419267585375565,-1,1,-1,incongruent,CR,q,2,1.6072498817297856,887721,20057,11:53:28.961229,feet
2,215,feet1,6,gabor,90,0.014601528380162545,3,4,-1,q,0.4489572261509238,-1,0,-1,congruent,FA,3,2,1.9628167181731442,893071,20057,11:53:28.961229,feet
2,216,feet1,6,gabor,0,0.014601528380162545,3,3,-1,q,0.46945098087417136,-1,1,-1,congruent,hit,3,2,1.306430976327647,898922,20057,11:53:28.961229,feet
2,217,feet1,7,gabor,0,0.014601528380162545,3,3,-1,q,0.4488977070955116,-1,1,-1,congruent,hit,3,1,0.7377886098188355,929070,20057,11:53:28.961229,feet
2,218,feet1,7,cue,white,-1,-1,-1,c,c,-1,0.3245289930760009,-1,1,none,none,-1,-1,-1,933603,20057,11:53:28.961229,feet
2,219,feet1,7,gabor,0,0.014601528380162545,3,3,-1,c,0.5613821937417924,-1,1,-1,incongruent,hit,3,2,0.8842876605863239,936454,20057,11:53:28.961229,feet
2,220,feet1,7,cue,white,-1,-1,-1,c,c,-1,0.3910939525567301,-1,1,none,none,-1,-1,-1,941353,20057,11:53:28.961229,feet
2,221,feet1,7,cue,white,-1,-1,-1,c,c,-1,0.3138808420831083,-1,1,none,none,-1,-1,-1,944069,20057,11:53:28.961229,feet
2,222,feet1,7,cue,black,-1,-1,-1,q,q,-1,0.31679919576299653,-1,1,none,none,-1,-1,-1,946820,20057,11:53:28.961229,feet
2,223,feet1,7,cue,white,-1,-1,-1,c,c,-1,0.31867155004511005,-1,1,none,none,-1,-1,-1,949569,20057,11:53:28.961229,feet
2,224,feet1,7,cue,white,-1,-1,-1,c,c,-1,0.36055338129654046,-1,1,none,none,-1,-1,-1,952319,20057,11:53:28.961229,feet
2,225,feet1,7,cue,black,-1,-1,-1,q,q,-1,0.2613631476442606,-1,1,none,none,-1,-1,-1,955203,20057,11:53:28.961229,feet
2,226,feet1,7,cue,black,-1,-1,-1,q,q,-1,0.25327969194449906,-1,1,none,none,-1,-1,-1,957802,20057,11:53:28.961229,feet
2,227,feet1,7,cue,black,-1,-1,-1,q,q,-1,0.23811500463853008,-1,1,none,none,-1,-1,-1,960385,20057,11:53:28.961229,feet
2,228,feet1,7,cue,white,-1,-1,-1,c,c,-1,0.21985993438329388,-1,1,none,none,-1,-1,-1,963052,20057,11:53:28.961229,feet
2,229,feet1,7,cue,black,-1,-1,-1,q,q,-1,0.25374778051491376,-1,1,none,none,-1,-1,-1,965602,20057,11:53:28.961229,feet
2,230,feet1,7,cue,white,-1,-1,-1,c,c,-1,0.23455461314915738,-1,1,none,none,-1,-1,-1,968285,20057,11:53:28.961229,feet
2,231,feet1,7,cue,white,-1,-1,-1,c,c,-1,0.2404262639543049,-1,1,none,none,-1,-1,-1,970952,20057,11:53:28.961229,feet
2,232,feet1,7,cue,black,-1,-1,-1,q,q,-1,0.25723828511399915,-1,1,none,none,-1,-1,-1,973719,20057,11:53:28.961229,feet
2,233,feet1,7,gabor,90,0.014601528380162545,4,4,-1,c,0.7011640391242508,-1,1,-1,congruent,CR,q,3,1.3190651437980705,976401,20057,11:53:28.961229,feet
2,234,feet1,7,gabor,90,0.014601528380162545,3,4,-1,c,0.6687722332471822,-1,0,-1,incongruent,FA,4,1,1.4597670385774109,981669,20057,11:53:28.961229,feet
2,235,feet1,7,gabor,0,0.014601528380162545,4,3,-1,c,0.6824351203899823,-1,0,-1,congruent,miss,3,2,0.9645420027891305,987035,20057,11:53:28.961229,feet
2,236,feet1,7,cue,black,-1,-1,-1,q,q,-1,0.3542839128058404,-1,1,none,none,-1,-1,-1,992118,20057,11:53:28.961229,feet
2,237,feet1,7,cue,white,-1,-1,-1,c,c,-1,0.35913298784134895,-1,1,none,none,-1,-1,-1,994801,20057,11:53:28.961229,feet
2,238,feet1,7,cue,black,-1,-1,-1,q,q,-1,0.2868641828918044,-1,1,none,none,-1,-1,-1,997584,20057,11:53:28.961229,feet
2,239,feet1,7,cue,black,-1,-1,-1,q,q,-1,0.2747461032299725,-1,1,none,none,-1,-1,-1,1000301,20057,11:53:28.961229,feet
2,240,feet1,7,gabor,90,0.014601528380162545,4,4,-1,q,0.4995802946614276,-1,1,-1,incongruent,CR,c,2,1.4475345287319215,1003001,20057,11:53:28.961229,feet
2,241,feet1,7,cue,black,-1,-1,-1,q,q,-1,0.37524306814202646,-1,1,none,none,-1,-1,-1,1008200,20057,11:53:28.961229,feet
2,242,feet1,7,cue,white,-1,-1,-1,c,c,-1,0.2832158567980514,-1,1,none,none,-1,-1,-1,1010900,20057,11:53:28.961229,feet
2,243,feet1,7,gabor,0,0.014601528380162545,3,3,-1,q,0.467794815160687,-1,1,-1,congruent,hit,c,3,1.2198603183769592,1016551,20057,11:53:28.961229,feet
2,244,feet1,7,gabor,90,0.014601528380162545,3,4,-1,c,0.3745077198132094,-1,0,-1,incongruent,FA,q,2,1.7304435743994873,1021685,20057,11:53:28.961229,feet
2,245,feet1,7,gabor,90,0.014601528380162545,3,4,-1,q,0.7212388564967114,-1,0,-1,congruent,FA,4,3,1.118189484096547,1027034,20057,11:53:28.961229,feet
2,246,feet1,7,cue,black,-1,-1,-1,q,q,-1,0.24874971584449668,-1,1,none,none,-1,-1,-1,1035783,20057,11:53:28.961229,feet
2,247,feet1,7,gabor,90,0.014601528380162545,3,4,-1,q,0.37052531902236296,-1,0,-1,congruent,FA,3,3,0.7565378802310079,1038366,20057,11:53:28.961229,feet
2,248,feet1,7,cue,white,-1,-1,-1,c,c,-1,0.28726430454071306,-1,1,none,none,-1,-1,-1,1042833,20057,11:53:28.961229,feet
2,249,feet1,7,cue,white,-1,-1,-1,c,c,-1,0.31010579800067717,-1,1,none,none,-1,-1,-1,1045650,20057,11:53:28.961229,feet
2,250,feet1,7,cue,black,-1,-1,-1,q,q,-1,0.2508225149449572,-1,1,none,none,-1,-1,-1,1051949,20057,11:53:28.961229,feet
2,251,feet1,7,gabor,0,0.014601528380162545,4,3,-1,c,0.5126264875921152,-1,0,-1,congruent,miss,4,2,1.3705783101809175,1054734,20057,11:53:28.961229,feet
2,252,feet1,7,gabor,0,0.014601528380162545,3,3,-1,q,0.6882752836945656,-1,1,-1,congruent,hit,4,2,1.4123272795413868,1059866,20057,11:53:28.961229,feet
2,253,feet1,8,cue,white,-1,-1,-1,c,c,-1,0.3354321160213658,-1,1,none,none,-1,-1,-1,1080482,20057,11:53:28.961229,feet
2,254,feet1,8,cue,black,-1,-1,-1,q,q,-1,0.4581703919197935,-1,1,none,none,-1,-1,-1,1083399,20057,11:53:28.961229,feet
2,255,feet1,8,gabor,0,0.014601528380162545,3,3,-1,c,0.4768935507458991,-1,1,-1,incongruent,hit,q,3,1.0597690353461076,1086383,20057,11:53:28.961229,feet
2,256,feet1,8,gabor,90,0.014601528380162545,3,4,-1,q,0.5546208290579671,-1,0,-1,congruent,FA,3,3,0.9364601445045082,1091349,20057,11:53:28.961229,feet
2,257,feet1,8,gabor,0,0.014601528380162545,3,3,-1,c,0.35822829820062907,-1,1,-1,incongruent,hit,c,2,1.009277292750994,1096181,20057,11:53:28.961229,feet
2,258,feet1,8,cue,white,-1,-1,-1,c,c,-1,0.2550948311350112,-1,1,none,none,-1,-1,-1,1100880,20057,11:53:28.961229,feet
2,259,feet1,8,cue,black,-1,-1,-1,q,q,-1,0.323802860601063,-1,1,none,none,-1,-1,-1,1103563,20057,11:53:28.961229,feet
2,260,feet1,8,cue,white,-1,-1,-1,c,c,-1,0.2497289003026708,-1,1,none,none,-1,-1,-1,1106215,20057,11:53:28.961229,feet
2,261,feet1,8,cue,white,-1,-1,-1,c,c,-1,0.25863717491074567,-1,1,none,none,-1,-1,-1,1108797,20057,11:53:28.961229,feet
2,262,feet1,8,cue,black,-1,-1,-1,q,q,-1,0.31938501072136205,-1,1,none,none,-1,-1,-1,1111481,20057,11:53:28.961229,feet
2,263,feet1,8,cue,black,-1,-1,-1,q,q,-1,0.25327354804221613,-1,1,none,none,-1,-1,-1,1114331,20057,11:53:28.961229,feet
2,264,feet1,8,cue,black,-1,-1,-1,q,q,-1,0.2341683152803853,-1,1,none,none,-1,-1,-1,1117013,20057,11:53:28.961229,feet
2,265,feet1,8,gabor,0,0.014601528380162545,3,3,-1,q,0.4149307582192705,-1,1,-1,congruent,hit,c,2,1.1237604676739466,1119680,20057,11:53:28.961229,feet
2,266,feet1,8,gabor,90,0.014601528380162545,3,4,-1,c,0.4976695409891363,-1,0,-1,incongruent,FA,4,2,0.9535421133796262,1124648,20057,11:53:28.961229,feet
2,267,feet1,8,gabor,0,0.014601528380162545,3,3,-1,c,0.41325769677405333,-1,1,-1,incongruent,hit,q,4,2.041316592223211,1129547,20057,11:53:28.961229,feet
2,268,feet1,8,cue,black,-1,-1,-1,q,q,-1,0.21311354546196526,-1,1,none,none,-1,-1,-1,1135346,20057,11:53:28.961229,feet
2,269,feet1,8,cue,white,-1,-1,-1,c,c,-1,0.2950655247200302,-1,1,none,none,-1,-1,-1,1138097,20057,11:53:28.961229,feet
2,270,feet1,8,cue,black,-1,-1,-1,q,q,-1,0.26573415026769,-1,1,none,none,-1,-1,-1,1140830,20057,11:53:28.961229,feet
2,271,feet1,8,gabor,0,0.014601528380162545,3,3,-1,q,0.3405188832844033,-1,1,-1,congruent,hit,3,3,1.2505133998511155,1143430,20057,11:53:28.961229,feet
2,272,feet1,8,cue,black,-1,-1,-1,q,q,-1,0.3053630892768524,-1,1,none,none,-1,-1,-1,1148463,20057,11:53:28.961229,feet
2,273,feet1,8,cue,white,-1,-1,-1,c,c,-1,0.2632097743344275,-1,1,none,none,-1,-1,-1,1151297,20057,11:53:28.961229,feet
2,274,feet1,8,cue,black,-1,-1,-1,q,q,-1,0.28808720347979033,-1,1,none,none,-1,-1,-1,1154096,20057,11:53:28.961229,feet
2,275,feet1,8,gabor,90,0.014601528380162545,3,4,-1,q,0.43552358336955876,-1,0,-1,congruent,FA,c,3,0.9267735142507263,1156813,20057,11:53:28.961229,feet
2,276,feet1,8,cue,white,-1,-1,-1,c,c,-1,0.3075176790794103,-1,1,none,none,-1,-1,-1,1161412,20057,11:53:28.961229,feet
2,277,feet1,8,gabor,0,0.014601528380162545,3,3,-1,q,0.6104569988265212,-1,1,-1,congruent,hit,4,1,1.8063269139788645,1164145,20057,11:53:28.961229,feet
2,278,feet1,8,gabor,90,0.014601528380162545,3,4,-1,q,0.511082832093507,-1,0,-1,congruent,FA,c,3,1.3610471974589018,1169895,20057,11:53:28.961229,feet
2,279,feet1,8,cue,white,-1,-1,-1,c,c,-1,0.36077878571904876,-1,1,none,none,-1,-1,-1,1175095,20057,11:53:28.961229,feet
2,280,feet1,8,cue,white,-1,-1,-1,c,c,-1,0.3296533917414308,-1,1,none,none,-1,-1,-1,1177878,20057,11:53:28.961229,feet
2,281,feet1,8,cue,black,-1,-1,-1,q,q,-1,0.2995597893868762,-1,1,none,none,-1,-1,-1,1180645,20057,11:53:28.961229,feet
2,282,feet1,8,cue,black,-1,-1,-1,q,q,-1,0.30926485134796167,-1,1,none,none,-1,-1,-1,1183378,20057,11:53:28.961229,feet
2,283,feet1,8,cue,white,-1,-1,-1,c,c,-1,0.34028771895327736,-1,1,none,none,-1,-1,-1,1186011,20057,11:53:28.961229,feet
2,284,feet1,8,gabor,90,0.014601528380162545,3,4,-1,c,0.4601160890374558,-1,0,-1,incongruent,FA,c,2,0.9598426853767705,1188778,20057,11:53:28.961229,feet
2,285,feet1,8,cue,white,-1,-1,-1,c,c,-1,0.3437221604417573,-1,1,none,none,-1,-1,-1,1193528,20057,11:53:28.961229,feet
2,286,feet1,8,cue,black,-1,-1,-1,q,q,-1,0.34154299502961294,-1,1,none,none,-1,-1,-1,1196396,20057,11:53:28.961229,feet
2,287,feet1,8,cue,white,-1,-1,-1,c,c,-1,0.3264167071142765,-1,1,none,none,-1,-1,-1,1199161,20057,11:53:28.961229,feet
2,288,feet1,8,gabor,90,0.014601528380162545,3,4,-1,c,0.4590336102182846,-1,0,-1,incongruent,FA,4,2,0.9368925216417665,1205677,20057,11:53:28.961229,feet
2,289,feet1,9,cue,white,-1,-1,-1,c,c,-1,0.312218532467341,-1,1,none,none,-1,-1,-1,1233943,20057,11:53:28.961229,feet
2,290,feet1,9,cue,black,-1,-1,-1,q,q,-1,0.36308620509589673,-1,1,none,none,-1,-1,-1,1236877,20057,11:53:28.961229,feet
2,291,feet1,9,cue,black,-1,-1,-1,q,q,-1,0.2399896628839997,-1,1,none,none,-1,-1,-1,1239576,20057,11:53:28.961229,feet
2,292,feet1,9,cue,white,-1,-1,-1,c,c,-1,0.26096494596458797,-1,1,none,none,-1,-1,-1,1242242,20057,11:53:28.961229,feet
2,293,feet1,9,cue,black,-1,-1,-1,q,q,-1,0.26980179770544055,-1,1,none,none,-1,-1,-1,1244827,20057,11:53:28.961229,feet
2,294,feet1,9,cue,white,-1,-1,-1,c,c,-1,0.25369018142964705,-1,1,none,none,-1,-1,-1,1247426,20057,11:53:28.961229,feet
2,295,feet1,9,cue,white,-1,-1,-1,c,c,-1,0.24412758120706712,-1,1,none,none,-1,-1,-1,1253675,20057,11:53:28.961229,feet
2,296,feet1,9,gabor,0,0.014601528380162545,3,3,-1,q,0.3990288026147937,-1,1,-1,congruent,hit,q,3,0.9220503892161105,1256242,20057,11:53:28.961229,feet
2,297,feet1,9,cue,white,-1,-1,-1,c,c,-1,0.38296556957038774,-1,1,none,none,-1,-1,-1,1261011,20057,11:53:28.961229,feet
2,298,feet1,9,cue,white,-1,-1,-1,c,c,-1,0.29078399267655186,-1,1,none,none,-1,-1,-1,1263726,20057,11:53:28.961229,feet
2,299,feet1,9,cue,black,-1,-1,-1,q,q,-1,0.31350951997683296,-1,1,none,none,-1,-1,-1,1266342,20057,11:53:28.961229,feet
2,300,feet1,9,cue,black,-1,-1,-1,q,q,-1,0.2874309578960492,-1,1,none,none,-1,-1,-1,1268993,20057,11:53:28.961229,feet
2,301,feet1,9,gabor,0,0.014601528380162545,3,3,-1,c,0.34227603939461915,-1,1,-1,incongruent,hit,3,2,0.8232833168472098,1271708,20057,11:53:28.961229,feet
2,302,feet1,9,gabor,90,0.014601528380162545,3,4,-1,q,0.6698635439261125,-1,0,-1,congruent,FA,3,1,0.6278553786792145,1276208,20057,11:53:28.961229,feet
2,303,feet1,9,gabor,0,0.014601528380162545,3,3,-1,q,0.4346680449489213,-1,1,-1,congruent,hit,q,3,0.9057106805603325,1280842,20057,11:53:28.961229,feet
2,304,feet1,9,cue,black,-1,-1,-1,q,q,-1,0.5383510072929312,-1,1,none,none,-1,-1,-1,1285525,20057,11:53:28.961229,feet
2,305,feet1,9,cue,white,-1,-1,-1,c,c,-1,0.31225040396157056,-1,1,none,none,-1,-1,-1,1288592,20057,11:53:28.961229,feet
2,306,feet1,9,gabor,0,0.014601528380162545,3,3,-1,c,0.2880964193336695,-1,1,-1,incongruent,hit,c,3,0.7830933627424201,1291442,20057,11:53:28.961229,feet
2,307,feet1,9,gabor,90,0.014601528380162545,3,4,-1,q,0.3908720040794833,-1,0,-1,congruent,FA,4,2,1.0988096956925801,1295757,20057,11:53:28.961229,feet
2,308,feet1,9,cue,black,-1,-1,-1,q,q,-1,0.3566431713597922,-1,1,none,none,-1,-1,-1,1300491,20057,11:53:28.961229,feet
2,309,feet1,9,gabor,90,0.014601528380162545,3,4,-1,c,0.2873629909745432,-1,0,-1,incongruent,FA,c,2,1.8823492593523952,1303174,20057,11:53:28.961229,feet
2,310,feet1,9,gabor,90,0.014601528380162545,3,4,-1,q,0.39512089664094674,-1,0,-1,congruent,FA,q,1,0.9291427566463426,1308691,20057,11:53:28.961229,feet
2,311,feet1,9,cue,white,-1,-1,-1,q,c,-1,0.37785153874028765,-1,0,none,none,-1,-1,-1,1313357,20057,11:53:28.961229,feet
2,312,feet1,9,gabor,90,0.014601528380162545,3,4,-1,c,0.34974740880898025,-1,0,-1,incongruent,FA,c,3,1.1966363669876046,1316259,20057,11:53:28.961229,feet
2,313,feet1,9,cue,white,-1,-1,-1,c,c,-1,0.27438630094047767,-1,1,none,none,-1,-1,-1,1321157,20057,11:53:28.961229,feet
2,314,feet1,9,gabor,0,0.014601528380162545,3,3,-1,c,0.5011995969603049,-1,1,-1,incongruent,hit,3,2,1.418280721048177,1323757,20057,11:53:28.961229,feet
2,315,feet1,9,cue,white,-1,-1,-1,c,c,-1,0.2948259125232653,-1,1,none,none,-1,-1,-1,1331857,20057,11:53:28.961229,feet
2,316,feet1,9,cue,black,-1,-1,-1,q,q,-1,0.30182112949478324,-1,1,none,none,-1,-1,-1,1334691,20057,11:53:28.961229,feet
2,317,feet1,9,cue,black,-1,-1,-1,q,q,-1,0.28554477983334436,-1,1,none,none,-1,-1,-1,1337323,20057,11:53:28.961229,feet
2,318,feet1,9,cue,white,-1,-1,-1,c,c,-1,0.27643951635172925,-1,1,none,none,-1,-1,-1,1339940,20057,11:53:28.961229,feet
2,319,feet1,9,cue,black,-1,-1,-1,q,q,-1,0.33230333368146603,-1,1,none,none,-1,-1,-1,1342740,20057,11:53:28.961229,feet
2,320,feet1,9,cue,black,-1,-1,-1,q,q,-1,0.30504245436623023,-1,1,none,none,-1,-1,-1,1345406,20057,11:53:28.961229,feet
2,321,feet1,9,gabor,0,0.014601528380162545,3,3,-1,q,0.5658234672500839,-1,1,-1,congruent,hit,3,3,0.8188013399853844,1348240,20057,11:53:28.961229,feet
2,322,feet1,9,cue,white,-1,-1,-1,c,c,-1,0.3186031991303935,-1,1,none,none,-1,-1,-1,1353074,20057,11:53:28.961229,feet
2,323,feet1,9,gabor,90,0.014601528380162545,3,4,-1,c,0.6384827940009927,-1,0,-1,incongruent,FA,q,2,1.368287402542137,1355723,20057,11:53:28.961229,feet
2,324,feet1,9,cue,black,-1,-1,-1,q,q,-1,0.5111703827037672,-1,1,none,none,-1,-1,-1,1361072,20057,11:53:28.961229,feet
2,325,feet1,10,cue,black,-1,-1,-1,q,q,-1,0.29454521297839165,-1,1,none,none,-1,-1,-1,1388905,20057,11:53:28.961229,feet
2,326,feet1,10,cue,black,-1,-1,-1,q,q,-1,0.3143869460504902,-1,1,none,none,-1,-1,-1,1391621,20057,11:53:28.961229,feet
2,327,feet1,10,cue,white,-1,-1,-1,c,c,-1,0.27235842912705266,-1,1,none,none,-1,-1,-1,1394271,20057,11:53:28.961229,feet
2,328,feet1,10,gabor,0,0.014601528380162545,3,3,-1,c,0.3972059835464279,-1,1,-1,incongruent,hit,3,3,4.082950363411783,1397072,20057,11:53:28.961229,feet
2,329,feet1,10,cue,black,-1,-1,-1,q,q,-1,0.5115889360604342,-1,1,none,none,-1,-1,-1,1404904,20057,11:53:28.961229,feet
2,330,feet1,10,cue,white,-1,-1,-1,c,c,-1,0.2894319501360769,-1,1,none,none,-1,-1,-1,1407855,20057,11:53:28.961229,feet
2,331,feet1,10,gabor,90,0.014601528380162545,3,4,-1,q,0.46016332028784745,-1,0,-1,congruent,FA,c,3,1.5512700982408205,1410570,20057,11:53:28.961229,feet
2,332,feet1,10,cue,black,-1,-1,-1,q,q,-1,0.4039942278036506,-1,1,none,none,-1,-1,-1,1415820,20057,11:53:28.961229,feet
2,333,feet1,10,gabor,90,0.014601528380162545,3,4,-1,c,0.36972200377249465,-1,0,-1,incongruent,FA,q,3,1.5117202619762793,1418654,20057,11:53:28.961229,feet
2,334,feet1,10,cue,black,-1,-1,-1,q,q,-1,0.28624518471633564,-1,1,none,none,-1,-1,-1,1427537,20057,11:53:28.961229,feet
2,335,feet1,10,cue,black,-1,-1,-1,q,q,-1,0.26231660451094285,-1,1,none,none,-1,-1,-1,1430153,20057,11:53:28.961229,feet
2,336,feet1,10,cue,black,-1,-1,-1,q,q,-1,0.30214061242395474,-1,1,none,none,-1,-1,-1,1432954,20057,11:53:28.961229,feet
2,337,feet1,10,cue,black,-1,-1,-1,q,q,-1,0.28079016729861905,-1,1,none,none,-1,-1,-1,1435686,20057,11:53:28.961229,feet
2,338,feet1,10,cue,white,-1,-1,-1,c,c,-1,0.26473077419313995,-1,1,none,none,-1,-1,-1,1438505,20057,11:53:28.961229,feet
2,339,feet1,10,gabor,90,0.014601528380162545,3,4,-1,q,0.3544075588429223,-1,0,-1,congruent,FA,q,3,1.5834791230190604,1441304,20057,11:53:28.961229,feet
2,340,feet1,10,cue,white,-1,-1,-1,c,c,-1,0.2892718246775985,-1,1,none,none,-1,-1,-1,1446687,20057,11:53:28.961229,feet
2,341,feet1,10,gabor,0,0.014601528380162545,3,3,-1,q,0.4449963290185224,-1,1,-1,congruent,hit,3,2,2.034970324951246,1449303,20057,11:53:28.961229,feet
2,342,feet1,10,cue,black,-1,-1,-1,q,q,-1,0.3557757291277994,-1,1,none,none,-1,-1,-1,1455237,20057,11:53:28.961229,feet
2,343,feet1,10,cue,white,-1,-1,-1,c,c,-1,0.4285971013064227,-1,1,none,none,-1,-1,-1,1458019,20057,11:53:28.961229,feet
2,344,feet1,10,cue,black,-1,-1,-1,q,q,-1,0.5184466832142789,-1,1,none,none,-1,-1,-1,1460987,20057,11:53:28.961229,feet
2,345,feet1,10,cue,white,-1,-1,-1,c,c,-1,0.3402593034043093,-1,1,none,none,-1,-1,-1,1463835,20057,11:53:28.961229,feet
2,346,feet1,10,cue,white,-1,-1,-1,c,c,-1,0.3851961901659706,-1,1,none,none,-1,-1,-1,1466502,20057,11:53:28.961229,feet
2,347,feet1,10,gabor,0,0.014601528380162545,3,3,-1,c,0.4351180858056978,-1,1,-1,incongruent,hit,4,2,1.0328453026791067,1469318,20057,11:53:28.961229,feet
2,348,feet1,10,gabor,0,0.014601528380162545,3,3,-1,q,0.6704537425584931,-1,1,-1,congruent,hit,3,3,1.2615850961215074,1474135,20057,11:53:28.961229,feet
2,349,feet1,10,cue,white,-1,-1,-1,c,c,-1,0.269336397092502,-1,1,none,none,-1,-1,-1,1479402,20057,11:53:28.961229,feet
2,350,feet1,10,cue,white,-1,-1,-1,c,c,-1,0.31436390641601974,-1,1,none,none,-1,-1,-1,1482102,20057,11:53:28.961229,feet
2,351,feet1,10,cue,white,-1,-1,-1,c,c,-1,0.3281158801446509,-1,1,none,none,-1,-1,-1,1484751,20057,11:53:28.961229,feet
2,352,feet1,10,cue,white,-1,-1,-1,c,c,-1,0.31573553264570364,-1,1,none,none,-1,-1,-1,1490452,20057,11:53:28.961229,feet
2,353,feet1,10,gabor,0,0.014601528380162545,3,3,-1,c,0.2974639506519452,-1,1,-1,incongruent,hit,4,2,1.1765116304072762,1493201,20057,11:53:28.961229,feet
2,354,feet1,10,gabor,0,0.014601528380162545,3,3,-1,q,0.32324760541359865,-1,1,-1,congruent,hit,q,2,1.498294299072768,1497918,20057,11:53:28.961229,feet
2,355,feet1,10,gabor,90,0.014601528380162545,3,4,-1,q,0.4058343265974145,-1,0,-1,congruent,FA,c,2,0.8187729244359616,1505818,20057,11:53:28.961229,feet
2,356,feet1,10,gabor,90,0.014601528380162545,3,4,-1,c,0.5925713307078695,-1,0,-1,incongruent,FA,4,3,0.9234880623971549,1510485,20057,11:53:28.961229,feet
2,357,feet1,10,cue,black,-1,-1,-1,q,q,-1,0.5023408268461935,-1,1,none,none,-1,-1,-1,1515435,20057,11:53:28.961229,feet
2,358,feet1,10,gabor,90,0.014601528380162545,3,4,-1,c,0.5172724298518006,-1,0,-1,incongruent,FA,3,2,1.2501643493910706,1518367,20057,11:53:28.961229,feet
2,359,feet1,10,cue,black,-1,-1,-1,q,q,-1,0.38784267616119905,-1,1,none,none,-1,-1,-1,1523484,20057,11:53:28.961229,feet
2,360,feet1,10,cue,white,-1,-1,-1,c,c,-1,0.315764332188337,-1,1,none,none,-1,-1,-1,1526301,20057,11:53:28.961229,feet
2,361,feet1,11,gabor,90,0.014601528380162545,3,4,-1,q,0.38047229714356945,-1,0,-1,congruent,FA,c,1,1.1362951807232093,1549116,20057,11:53:28.961229,feet
2,362,feet1,11,cue,black,-1,-1,-1,q,q,-1,0.3181861817488425,-1,1,none,none,-1,-1,-1,1554049,20057,11:53:28.961229,feet
2,363,feet1,11,cue,white,-1,-1,-1,c,c,-1,0.2680043222353561,-1,1,none,none,-1,-1,-1,1556699,20057,11:53:28.961229,feet
2,364,feet1,11,cue,black,-1,-1,-1,q,q,-1,0.27682696620240677,-1,1,none,none,-1,-1,-1,1559501,20057,11:53:28.961229,feet
2,365,feet1,11,gabor,90,0.014601528380162545,3,4,-1,c,0.45058344033941466,-1,0,-1,incongruent,FA,4,4,1.6685902201361387,1562301,20057,11:53:28.961229,feet
2,366,feet1,11,cue,white,-1,-1,-1,c,c,-1,0.39839098873790135,-1,1,none,none,-1,-1,-1,1567649,20057,11:53:28.961229,feet
2,367,feet1,11,gabor,0,0.014601528380162545,3,3,-1,q,0.5180826569921919,-1,1,-1,congruent,hit,c,2,1.0172094548511268,1570382,20057,11:53:28.961229,feet
2,368,feet1,11,cue,white,-1,-1,-1,c,c,-1,0.289955717822977,-1,1,none,none,-1,-1,-1,1575165,20057,11:53:28.961229,feet
2,369,feet1,11,cue,white,-1,-1,-1,c,c,-1,0.3897511258701343,-1,1,none,none,-1,-1,-1,1577882,20057,11:53:28.961229,feet
2,370,feet1,11,gabor,90,0.014601528380162545,3,4,-1,c,0.5045380399719761,-1,0,-1,incongruent,FA,c,2,1.5295026357343886,1580800,20057,11:53:28.961229,feet
2,371,feet1,11,cue,white,-1,-1,-1,c,c,-1,0.32625734964358344,-1,1,none,none,-1,-1,-1,1586266,20057,11:53:28.961229,feet
2,372,feet1,11,cue,black,-1,-1,-1,q,q,-1,0.3962141272891131,-1,1,none,none,-1,-1,-1,1589116,20057,11:53:28.961229,feet
2,373,feet1,11,cue,black,-1,-1,-1,q,q,-1,0.34700108439892574,-1,1,none,none,-1,-1,-1,1591948,20057,11:53:28.961229,feet
2,374,feet1,11,gabor,90,0.014601528380162545,3,4,-1,c,0.5487288265758252,-1,0,-1,incongruent,FA,3,1,1.4247567782604165,1594632,20057,11:53:28.961229,feet
2,375,feet1,11,cue,black,-1,-1,-1,q,q,-1,0.5685160325133438,-1,1,none,none,-1,-1,-1,1600032,20057,11:53:28.961229,feet
2,376,feet1,11,cue,black,-1,-1,-1,q,q,-1,0.2922692811021079,-1,1,none,none,-1,-1,-1,1602931,20057,11:53:28.961229,feet
2,377,feet1,11,cue,black,-1,-1,-1,q,q,-1,0.31630768356444605,-1,1,none,none,-1,-1,-1,1605749,20057,11:53:28.961229,feet
2,378,feet1,11,cue,black,-1,-1,-1,q,q,-1,0.2620739203625817,-1,1,none,none,-1,-1,-1,1608497,20057,11:53:28.961229,feet
2,379,feet1,11,gabor,0,0.014601528380162545,3,3,-1,c,0.5147887572729815,-1,1,-1,incongruent,hit,4,3,1.789757576967986,1611198,20057,11:53:28.961229,feet
2,380,feet1,11,gabor,0,0.014601528380162545,3,3,-1,q,0.44346918525707224,-1,1,-1,congruent,hit,c,2,0.7954187991126673,1616831,20057,11:53:28.961229,feet
2,381,feet1,11,gabor,90,0.014601528380162545,3,4,-1,q,0.4642509354093818,-1,0,-1,congruent,FA,4,2,1.4512193342466162,1621314,20057,11:53:28.961229,feet
2,382,feet1,11,cue,black,-1,-1,-1,q,q,-1,0.32981159723021847,-1,1,none,none,-1,-1,-1,1629414,20057,11:53:28.961229,feet
2,383,feet1,11,cue,black,-1,-1,-1,q,q,-1,0.2676410640010545,-1,1,none,none,-1,-1,-1,1632181,20057,11:53:28.961229,feet
2,384,feet1,11,cue,black,-1,-1,-1,q,q,-1,0.2795322032648073,-1,1,none,none,-1,-1,-1,1634880,20057,11:53:28.961229,feet
2,385,feet1,11,gabor,0,0.014601528380162545,3,3,-1,c,0.48221877822334136,-1,1,-1,incongruent,hit,q,1,0.8802849081180284,1637497,20057,11:53:28.961229,feet
2,386,feet1,11,gabor,0,0.014601528380162545,3,3,-1,c,0.35623805778914175,-1,1,-1,incongruent,hit,4,3,1.2801519694280614,1642113,20057,11:53:28.961229,feet
2,387,feet1,11,cue,black,-1,-1,-1,q,q,-1,0.40379071103370734,-1,1,none,none,-1,-1,-1,1646980,20057,11:53:28.961229,feet
2,388,feet1,11,cue,white,-1,-1,-1,c,c,-1,0.37571922058441487,-1,1,none,none,-1,-1,-1,1649914,20057,11:53:28.961229,feet
2,389,feet1,11,cue,white,-1,-1,-1,c,c,-1,0.32354558468432515,-1,1,none,none,-1,-1,-1,1652814,20057,11:53:28.961229,feet
2,390,feet1,11,cue,white,-1,-1,-1,c,c,-1,0.2813600142535506,-1,1,none,none,-1,-1,-1,1655463,20057,11:53:28.961229,feet
2,391,feet1,11,cue,white,-1,-1,-1,c,c,-1,0.25610473510550946,-1,1,none,none,-1,-1,-1,1658079,20057,11:53:28.961229,feet
2,392,feet1,11,cue,white,-1,-1,-1,c,c,-1,0.34909615514561665,-1,1,none,none,-1,-1,-1,1660762,20057,11:53:28.961229,feet
2,393,feet1,11,gabor,90,0.014601528380162545,3,4,-1,q,0.34085218999371136,-1,0,-1,congruent,FA,3,2,1.1917861399701906,1663446,20057,11:53:28.961229,feet
2,394,feet1,11,cue,white,-1,-1,-1,c,c,-1,0.3796171427165973,-1,1,none,none,-1,-1,-1,1668213,20057,11:53:28.961229,feet
2,395,feet1,11,gabor,0,0.014601528380162545,3,3,-1,q,0.46439070919041114,-1,1,-1,congruent,hit,c,1,0.6803346737283391,1670929,20057,11:53:28.961229,feet
2,396,feet1,11,cue,white,-1,-1,-1,c,c,-1,0.36728671442551786,-1,1,none,none,-1,-1,-1,1675530,20057,11:53:28.961229,feet
