start,accuracy_gabor,delta,orientation,pressed_gabor,expected_gabor,rt_gabor,trial,participant,response condition,date,expName,
0.0005,0,0.0005,0,4,3,1.8565909481884546,0,2,2,2021_Apr_10_1130,Motor,
0.0425,1,0.0425,0,3,3,0.6391601592499683,1,2,2,2021_Apr_10_1130,Motor,
0.0005,1,0.004999999999999999,90,4,4,0.758190973992896,2,2,2,2021_Apr_10_1130,Motor,
0.0425,1,0.038000000000000006,0,3,3,0.5049308657372649,3,2,2,2021_Apr_10_1130,Motor,
0.0005,1,0.0005,90,4,4,0.6936062710813076,4,2,2,2021_Apr_10_1130,Motor,
0.0425,1,0.03350000000000001,0,3,3,0.4493247083181586,5,2,2,2021_Apr_10_1130,Motor,
0.0425,1,0.02900000000000001,0,3,3,0.4481911583098963,6,2,2,2021_Apr_10_1130,Motor,
0.0005,0,0.0005,0,4,3,0.5840785375054338,7,2,2,2021_Apr_10_1130,Motor,
0.0005,0,0.004999999999999999,0,4,3,0.6338376197293201,8,2,2,2021_Apr_10_1130,Motor,
0.0425,1,0.024500000000000008,90,4,4,0.6914140498762436,9,2,2,2021_Apr_10_1130,Motor,
0.0425,1,0.020000000000000007,90,4,4,0.45036993972826167,10,2,2,2021_Apr_10_1130,Motor,
0.0005,1,0.009499999999999998,90,4,4,0.6731297960839129,11,2,2,2021_Apr_10_1130,Motor,
0.0425,0,0.015500000000000007,0,4,3,1.0240664340176409,12,2,2,2021_Apr_10_1130,Motor,
0.0005,0,0.009499999999999998,0,4,3,0.8965846814079441,13,2,2,2021_Apr_10_1130,Motor,
0.0005,1,0.013999999999999999,0,3,3,0.830406019795646,14,2,2,2021_Apr_10_1130,Motor,
0.0425,1,0.020000000000000007,90,4,4,0.5952900075569687,15,2,2,2021_Apr_10_1130,Motor,
0.0005,1,0.013999999999999999,90,4,4,3.2518431707452464,16,2,2,2021_Apr_10_1130,Motor,
0.0425,1,0.020000000000000007,0,3,3,0.5396032114178979,17,2,2,2021_Apr_10_1130,Motor,
0.0005,1,0.013999999999999999,0,3,3,0.6363508598391263,18,2,2,2021_Apr_10_1130,Motor,
0.0425,1,0.020000000000000007,0,3,3,0.5573014905107812,19,2,2,2021_Apr_10_1130,Motor,
0.0425,1,0.015500000000000007,90,4,4,0.6369518103008431,20,2,2,2021_Apr_10_1130,Motor,
0.0005,0,0.009499999999999998,0,4,3,0.566821083415789,21,2,2,2021_Apr_10_1130,Motor,
0.0425,0,0.015500000000000007,0,4,3,0.4915598139626809,22,2,2,2021_Apr_10_1130,Motor,
0.0005,1,0.013999999999999999,90,4,4,0.42922531533588426,23,2,2,2021_Apr_10_1130,Motor,
0.0005,0,0.013999999999999999,0,4,3,1.5411069315507575,24,2,2,2021_Apr_10_1130,Motor,
0.0425,1,0.020000000000000007,90,4,4,0.5408043443534325,25,2,2,2021_Apr_10_1130,Motor,
0.0005,1,0.0185,0,3,3,0.5985044205378927,26,2,2,2021_Apr_10_1130,Motor,
0.0425,0,0.020000000000000007,90,3,4,0.5372815842666796,27,2,2,2021_Apr_10_1130,Motor,
0.0005,0,0.0185,0,4,3,0.6831566449377533,28,2,2,2021_Apr_10_1130,Motor,
0.0425,1,0.024500000000000008,0,3,3,0.7018636760197978,29,2,2,2021_Apr_10_1130,Motor,
0.0425,1,0.024500000000000008,90,4,4,0.5286106178923546,30,2,2,2021_Apr_10_1130,Motor,
0.0005,1,0.023,90,4,4,0.6884438570191378,31,2,2,2021_Apr_10_1130,Motor,
0.0425,1,0.024500000000000008,0,3,3,0.5803100213194057,32,2,2,2021_Apr_10_1130,Motor,
0.0005,1,0.023,0,3,3,0.5630498792723984,33,2,2,2021_Apr_10_1130,Motor,
0.0425,1,0.020000000000000007,0,3,3,0.7097812463520086,34,2,2,2021_Apr_10_1130,Motor,
0.0005,1,0.023,90,4,4,0.6585468595442308,35,2,2,2021_Apr_10_1130,Motor,
0.0005,1,0.0185,90,4,4,0.6103659922709994,36,2,2,2021_Apr_10_1130,Motor,
0.0425,1,0.020000000000000007,90,4,4,0.5881500248827933,37,2,2,2021_Apr_10_1130,Motor,
0.0425,1,0.020000000000000007,90,4,4,0.5600105675123359,38,2,2,2021_Apr_10_1130,Motor,
0.0005,1,0.0185,0,3,3,0.7756442649741757,39,2,2,2021_Apr_10_1130,Motor,
0.0005,1,0.0185,90,4,4,0.611759122159242,40,2,2,2021_Apr_10_1130,Motor,
0.0425,0,0.015500000000000007,0,4,3,0.5974768528474215,41,2,2,2021_Apr_10_1130,Motor,
0.0005,1,0.013999999999999999,90,4,4,0.5973078955290703,42,2,2,2021_Apr_10_1130,Motor,
0.0425,1,0.020000000000000007,90,4,4,0.5582038761881449,43,2,2,2021_Apr_10_1130,Motor,
0.0425,0,0.020000000000000007,0,4,3,0.6950516241406604,44,2,2,2021_Apr_10_1130,Motor,
0.0005,1,0.013999999999999999,90,4,4,0.6394485386728093,45,2,2,2021_Apr_10_1130,Motor,
0.0005,0,0.013999999999999999,0,4,3,1.7813822859003494,46,2,2,2021_Apr_10_1130,Motor,
0.0425,1,0.024500000000000008,90,4,4,0.6581125624373954,47,2,2,2021_Apr_10_1130,Motor,
0.0005,1,0.0185,0,3,3,2.022919444222566,48,2,2,2021_Apr_10_1130,Motor,
0.0425,1,0.024500000000000008,90,4,4,0.4595109146426921,49,2,2,2021_Apr_10_1130,Motor,
0.0005,1,0.0185,0,3,3,0.7664460749679165,50,2,2,2021_Apr_10_1130,Motor,
0.0425,1,0.024500000000000008,0,3,3,0.7011824708317818,51,2,2,2021_Apr_10_1130,Motor,
0.0005,1,0.0185,0,3,3,0.5449956378292882,52,2,2,2021_Apr_10_1130,Motor,
0.0425,1,0.020000000000000007,90,4,4,0.5877571991177319,53,2,2,2021_Apr_10_1130,Motor,
0.0005,1,0.013999999999999999,0,3,3,0.5374801091156769,54,2,2,2021_Apr_10_1130,Motor,
0.0425,1,0.020000000000000007,90,4,4,0.9851805232146944,55,2,2,2021_Apr_10_1130,Motor,
0.0005,1,0.013999999999999999,0,3,3,0.7530208800526452,56,2,2,2021_Apr_10_1130,Motor,
0.0425,1,0.020000000000000007,90,4,4,0.7507810436034106,57,2,2,2021_Apr_10_1130,Motor,
0.0005,1,0.013999999999999999,90,4,4,0.6505755300652254,58,2,2,2021_Apr_10_1130,Motor,
0.0425,0,0.015500000000000007,0,4,3,0.6823494897489581,59,2,2,2021_Apr_10_1130,Motor,
0.0425,1,0.020000000000000007,0,3,3,0.6742929136230487,60,2,2,2021_Apr_10_1130,Motor,
0.0005,1,0.009499999999999998,90,4,4,0.5773962755663433,61,2,2,2021_Apr_10_1130,Motor,
0.0425,1,0.020000000000000007,90,4,4,0.5382504008896376,62,2,2,2021_Apr_10_1130,Motor,
0.0425,1,0.020000000000000007,90,4,4,0.5799471470788831,63,2,2,2021_Apr_10_1130,Motor,
0.0005,0,0.009499999999999998,0,4,3,0.5247676068886449,64,2,2,2021_Apr_10_1130,Motor,
0.0005,1,0.013999999999999999,90,4,4,0.5386793220818618,65,2,2,2021_Apr_10_1130,Motor,
0.0425,1,0.015500000000000007,90,4,4,0.6644219662946398,66,2,2,2021_Apr_10_1130,Motor,
0.0005,1,0.013999999999999999,90,4,4,0.6143468570867299,67,2,2,2021_Apr_10_1130,Motor,
0.0425,1,0.015500000000000007,90,4,4,0.8289387790837281,68,2,2,2021_Apr_10_1130,Motor,
0.0425,0,0.015500000000000007,0,4,3,0.9776876501414336,69,2,2,2021_Apr_10_1130,Motor,
0.0005,0,0.013999999999999999,0,4,3,0.6794230721970962,70,2,2,2021_Apr_10_1130,Motor,
0.0425,1,0.020000000000000007,0,3,3,0.6692775692265513,71,2,2,2021_Apr_10_1130,Motor,
0.0005,1,0.0185,0,3,3,0.576249669765275,72,2,2,2021_Apr_10_1130,Motor,
0.0005,1,0.0185,90,4,4,0.5177435903738115,73,2,2,2021_Apr_10_1130,Motor,
0.0425,0,0.020000000000000007,0,4,3,0.6045792041188633,74,2,2,2021_Apr_10_1130,Motor,
0.0005,1,0.0185,0,3,3,0.6924135860115257,75,2,2,2021_Apr_10_1130,Motor,
0.0425,1,0.024500000000000008,90,4,4,0.5691799579756207,76,2,2,2021_Apr_10_1130,Motor,
0.0425,1,0.024500000000000008,90,4,4,0.5540056708221073,77,2,2,2021_Apr_10_1130,Motor,
0.0005,0,0.013999999999999999,90,3,4,0.5886618887584518,78,2,2,2021_Apr_10_1130,Motor,
0.0425,1,0.024500000000000008,0,3,3,0.883500473080403,79,2,2,2021_Apr_10_1130,Motor,
0.0005,1,0.0185,90,4,4,0.7901818902330433,80,2,2,2021_Apr_10_1130,Motor,
0.0425,1,0.020000000000000007,90,4,4,0.515982594324214,81,2,2,2021_Apr_10_1130,Motor,
0.0005,1,0.0185,90,4,4,0.5717711488482564,82,2,2,2021_Apr_10_1130,Motor,
0.0425,1,0.020000000000000007,90,4,4,0.4686376817828659,83,2,2,2021_Apr_10_1130,Motor,
0.0005,0,0.0185,0,4,3,0.6423937719259811,84,2,2,2021_Apr_10_1130,Motor,
0.0425,1,0.020000000000000007,0,3,3,0.7031800071267753,85,2,2,2021_Apr_10_1130,Motor,
0.0005,1,0.023,90,4,4,0.6238242106619509,86,2,2,2021_Apr_10_1130,Motor,
0.0005,1,0.023,90,4,4,0.5826347204217655,87,2,2,2021_Apr_10_1130,Motor,
0.0425,1,0.015500000000000007,90,4,4,0.6354104587653637,88,2,2,2021_Apr_10_1130,Motor,
0.0425,0,0.015500000000000007,0,4,3,0.6942390930371403,89,2,2,2021_Apr_10_1130,Motor,
0.0005,1,0.023,90,4,4,0.592135113631457,90,2,2,2021_Apr_10_1130,Motor,
0.0005,0,0.0185,0,4,3,0.8128233228683257,91,2,2,2021_Apr_10_1130,Motor,
0.0425,1,0.020000000000000007,90,4,4,0.5706464306997532,92,2,2,2021_Apr_10_1130,Motor,
0.0425,1,0.020000000000000007,90,4,4,0.5493428328304617,93,2,2,2021_Apr_10_1130,Motor,
0.0005,1,0.023,90,4,4,0.5181794234563313,94,2,2,2021_Apr_10_1130,Motor,
0.0005,1,0.023,0,3,3,0.5130181613756122,95,2,2,2021_Apr_10_1130,Motor,
0.0425,1,0.020000000000000007,0,3,3,0.647749334922537,96,2,2,2021_Apr_10_1130,Motor,
0.0425,1,0.015500000000000007,90,4,4,0.47544627771685555,97,2,2,2021_Apr_10_1130,Motor,
0.0005,1,0.023,90,4,4,0.4812311458993008,98,2,2,2021_Apr_10_1130,Motor,
0.0425,1,0.015500000000000007,0,3,3,0.7940533167857211,99,2,2,2021_Apr_10_1130,Motor,
0.0005,1,0.0185,90,4,4,0.618912160625996,100,2,2,2021_Apr_10_1130,Motor,
0.0005,1,0.0185,90,4,4,0.5145295613867802,101,2,2,2021_Apr_10_1130,Motor,
0.0425,1,0.015500000000000007,0,3,3,0.8513394475403402,102,2,2,2021_Apr_10_1130,Motor,
0.0005,0,0.0185,0,4,3,0.8192179733723606,103,2,2,2021_Apr_10_1130,Motor,
0.0425,1,0.011000000000000006,90,4,4,0.7470762704056142,104,2,2,2021_Apr_10_1130,Motor,
0.0425,1,0.011000000000000006,90,4,4,0.6106520677303706,105,2,2,2021_Apr_10_1130,Motor,
0.0005,1,0.023,0,3,3,0.679515230734296,106,2,2,2021_Apr_10_1130,Motor,
0.0005,1,0.023,90,4,4,0.5472757936386188,107,2,2,2021_Apr_10_1130,Motor,
0.0425,1,0.011000000000000006,90,4,4,0.8110139435866586,108,2,2,2021_Apr_10_1130,Motor,
0.0425,1,0.006500000000000007,90,4,4,0.7548421631452129,109,2,2,2021_Apr_10_1130,Motor,
0.0005,1,0.023,0,3,3,0.6275063282196243,110,2,2,2021_Apr_10_1130,Motor,
0.0005,1,0.0185,90,4,4,0.7543264593305139,111,2,2,2021_Apr_10_1130,Motor,
0.0425,1,0.006500000000000007,90,4,4,0.6382155342430451,112,2,2,2021_Apr_10_1130,Motor,
0.0005,1,0.0185,90,4,4,0.6698032568826875,113,2,2,2021_Apr_10_1130,Motor,
0.0425,1,0.006500000000000007,90,4,4,0.6695832283749041,114,2,2,2021_Apr_10_1130,Motor,
0.0425,0,0.002000000000000007,0,4,3,0.6883958577809608,115,2,2,2021_Apr_10_1130,Motor,
0.0005,1,0.0185,90,4,4,0.5881769044563043,116,2,2,2021_Apr_10_1130,Motor,
0.0425,1,0.006500000000000007,90,4,4,1.1409752984400257,117,2,2,2021_Apr_10_1130,Motor,
0.0005,1,0.013999999999999999,90,4,4,1.0427431295811402,118,2,2,2021_Apr_10_1130,Motor,
