start	accuracy_gabor	delta	orientation	pressed_gabor	expected_gabor	rt_gabor	trial	participant	response condition	date	expName	
0.0165	1	0.0165	90	x	x	0.6144086247768428	0	9	1	2021_Jun_09_1137	Motor	
0.025	1	0.025	90	x	x	0.8651499221650738	1	9	1	2021_Jun_09_1137	Motor	
0.025	1	0.023350000000000003	0	n	n	0.48919253303665755	2	9	1	2021_Jun_09_1137	Motor	
0.0165	1	0.01485	90	x	x	0.38786384242757777	3	9	1	2021_Jun_09_1137	Motor	
0.025	1	0.021700000000000004	0	n	n	0.4467437057883217	4	9	1	2021_Jun_09_1137	Motor	
0.0165	1	0.0132	0	n	n	0.6853923135467994	5	9	1	2021_Jun_09_1137	Motor	
0.025	1	0.020050000000000005	0	n	n	0.5973144337376652	6	9	1	2021_Jun_09_1137	Motor	
0.0165	0	0.01155	90	n	x	0.5112336985612274	7	9	1	2021_Jun_09_1137	Motor	
0.025	1	0.018400000000000007	90	x	x	0.4929859942594703	8	9	1	2021_Jun_09_1137	Motor	
0.0165	0	0.0132	0	x	n	0.5118772698751854	9	9	1	2021_Jun_09_1137	Motor	
0.0165	0	0.01485	90	n	x	0.6386857782263178	10	9	1	2021_Jun_09_1137	Motor	
0.025	1	0.016750000000000008	90	x	x	0.5345067118041698	11	9	1	2021_Jun_09_1137	Motor	
0.025	0	0.015100000000000008	0	x	n	0.6231525164175764	12	9	1	2021_Jun_09_1137	Motor	
0.0165	1	0.0165	90	x	x	0.5011439134505054	13	9	1	2021_Jun_09_1137	Motor	
0.0165	0	0.0165	90	n	x	0.6590454408960795	14	9	1	2021_Jun_09_1137	Motor	
0.025	1	0.016750000000000008	0	n	n	0.40280498790798447	15	9	1	2021_Jun_09_1137	Motor	
0.025	1	0.016750000000000008	90	x	x	0.7255801933633848	16	9	1	2021_Jun_09_1137	Motor	
0.0165	1	0.01815	0	n	n	0.4355288228562131	17	9	1	2021_Jun_09_1137	Motor	
0.0165	1	0.01815	90	x	x	0.6392656067964708	18	9	1	2021_Jun_09_1137	Motor	
0.025	0	0.016750000000000008	90	n	x	0.4562114231603118	19	9	1	2021_Jun_09_1137	Motor	
0.0165	1	0.01815	90	x	x	0.7600673215529241	20	9	1	2021_Jun_09_1137	Motor	
0.025	1	0.018400000000000007	90	x	x	0.4207873534405735	21	9	1	2021_Jun_09_1137	Motor	
0.025	0	0.018400000000000007	0	x	n	0.717663037426064	22	9	1	2021_Jun_09_1137	Motor	
0.0165	0	0.0165	0	x	n	0.45146796466360684	23	9	1	2021_Jun_09_1137	Motor	
0.025	0	0.020050000000000005	90	n	x	0.48307591760749347	24	9	1	2021_Jun_09_1137	Motor	
0.0165	0	0.01815	90	n	x	0.7421698183479748	25	9	1	2021_Jun_09_1137	Motor	
0.0165	1	0.019799999999999998	0	n	n	0.42300337375672825	26	9	1	2021_Jun_09_1137	Motor	
0.025	1	0.021700000000000004	0	n	n	0.4247885545673853	27	9	1	2021_Jun_09_1137	Motor	
0.0165	0	0.019799999999999998	90	n	x	0.381625117405747	28	9	1	2021_Jun_09_1137	Motor	
0.025	0	0.021700000000000004	90	n	x	0.7324605697367588	29	9	1	2021_Jun_09_1137	Motor	
0.025	1	0.023350000000000003	90	x	x	0.4211686579237721	30	9	1	2021_Jun_09_1137	Motor	
0.0165	1	0.021449999999999997	90	x	x	0.5031468179695366	31	9	1	2021_Jun_09_1137	Motor	
0.0165	1	0.021449999999999997	0	n	n	0.5690214874484809	32	9	1	2021_Jun_09_1137	Motor	
0.025	0	0.023350000000000003	90	n	x	0.6117145338830596	33	9	1	2021_Jun_09_1137	Motor	
0.0165	1	0.021449999999999997	0	n	n	0.4625522901687873	34	9	1	2021_Jun_09_1137	Motor	
0.025	1	0.025	0	n	n	0.43036988454878156	35	9	1	2021_Jun_09_1137	Motor	
0.0165	1	0.019799999999999998	90	x	x	0.43519474944150716	36	9	1	2021_Jun_09_1137	Motor	
0.025	0	0.025	90	n	x	0.7400739876620719	37	9	1	2021_Jun_09_1137	Motor	
0.0165	1	0.019799999999999998	90	x	x	0.6969335900448641	38	9	1	2021_Jun_09_1137	Motor	
0.025	1	0.02665	0	n	n	0.6305770100661903	39	9	1	2021_Jun_09_1137	Motor	
0.0165	1	0.019799999999999998	0	n	n	0.5876915834242027	40	9	1	2021_Jun_09_1137	Motor	
0.025	1	0.02665	0	n	n	0.48669082235028327	41	9	1	2021_Jun_09_1137	Motor	
0.0165	1	0.01815	0	n	n	0.48543055919253675	42	9	1	2021_Jun_09_1137	Motor	
0.025	1	0.02665	90	x	x	0.6840441161230046	43	9	1	2021_Jun_09_1137	Motor	
0.0165	1	0.01815	0	n	n	0.46596559888621414	44	9	1	2021_Jun_09_1137	Motor	
0.025	1	0.025	0	n	n	0.5058255491667296	45	9	1	2021_Jun_09_1137	Motor	
0.025	1	0.025	0	n	n	0.5246331144326177	46	9	1	2021_Jun_09_1137	Motor	
0.0165	1	0.01815	90	x	x	0.534669524594392	47	9	1	2021_Jun_09_1137	Motor	
0.0165	1	0.0165	90	x	x	0.6102841620786421	48	9	1	2021_Jun_09_1137	Motor	
0.025	1	0.025	90	x	x	0.6603179918110982	49	9	1	2021_Jun_09_1137	Motor	
0.025	1	0.023350000000000003	90	x	x	0.6759399558713994	50	9	1	2021_Jun_09_1137	Motor	
0.0165	0	0.0165	90	n	x	0.6037881621277847	51	9	1	2021_Jun_09_1137	Motor	
0.025	1	0.023350000000000003	90	x	x	0.789528756808977	52	9	1	2021_Jun_09_1137	Motor	
0.0165	1	0.01815	0	n	n	0.6483892669502893	53	9	1	2021_Jun_09_1137	Motor	
0.025	1	0.023350000000000003	90	x	x	0.5371113324608814	54	9	1	2021_Jun_09_1137	Motor	
0.0165	1	0.01815	0	n	n	0.5131329251244097	55	9	1	2021_Jun_09_1137	Motor	
0.0165	1	0.01815	0	n	n	0.45192376367958786	56	9	1	2021_Jun_09_1137	Motor	
0.025	1	0.021700000000000004	0	n	n	0.4867411253590035	57	9	1	2021_Jun_09_1137	Motor	
0.0165	1	0.0165	0	n	n	0.4135010970667281	58	9	1	2021_Jun_09_1137	Motor	
0.025	1	0.021700000000000004	0	n	n	0.4393698991407291	59	9	1	2021_Jun_09_1137	Motor	
0.025	1	0.021700000000000004	90	x	x	0.6162149251713345	60	9	1	2021_Jun_09_1137	Motor	
0.0165	0	0.0165	90	n	x	0.6331009923133024	61	9	1	2021_Jun_09_1137	Motor	
0.025	0	0.020050000000000005	90	n	x	0.9339905491788159	62	9	1	2021_Jun_09_1137	Motor	
0.0165	1	0.01815	0	n	n	0.5067317713037482	63	9	1	2021_Jun_09_1137	Motor	
0.0165	1	0.01815	90	x	x	0.752496910780792	64	9	1	2021_Jun_09_1137	Motor	
0.025	1	0.021700000000000004	0	n	n	0.42935192061486305	65	9	1	2021_Jun_09_1137	Motor	
0.025	1	0.021700000000000004	0	n	n	0.453248153572531	66	9	1	2021_Jun_09_1137	Motor	
0.0165	1	0.01815	90	x	x	0.6500730737589038	67	9	1	2021_Jun_09_1137	Motor	
0.025	1	0.021700000000000004	90	x	x	1.3096322965284344	68	9	1	2021_Jun_09_1137	Motor	
0.0165	1	0.0165	0	n	n	0.41961694451129006	69	9	1	2021_Jun_09_1137	Motor	
0.025	1	0.020050000000000005	90	x	x	0.9654683286880754	70	9	1	2021_Jun_09_1137	Motor	
0.0165	1	0.0165	0	n	n	0.5931772992889819	71	9	1	2021_Jun_09_1137	Motor	
0.0165	1	0.0165	0	n	n	0.5081847986612047	72	9	1	2021_Jun_09_1137	Motor	
0.025	1	0.020050000000000005	0	n	n	0.6019726459144294	73	9	1	2021_Jun_09_1137	Motor	
0.025	1	0.020050000000000005	0	n	n	0.5117728239347343	74	9	1	2021_Jun_09_1137	Motor	
0.0165	0	0.01485	0	x	n	0.8135536272311583	75	9	1	2021_Jun_09_1137	Motor	
0.025	1	0.018400000000000007	0	n	n	0.49542972208928404	76	9	1	2021_Jun_09_1137	Motor	
0.0165	1	0.0165	90	x	x	0.5941603199116798	77	9	1	2021_Jun_09_1137	Motor	
0.0165	0	0.0165	0	x	n	0.5731367343287275	78	9	1	2021_Jun_09_1137	Motor	
0.025	1	0.018400000000000007	0	n	n	0.43691849146307504	79	9	1	2021_Jun_09_1137	Motor	
0.0165	1	0.01815	0	n	n	0.5334438207546555	80	9	1	2021_Jun_09_1137	Motor	
0.025	1	0.018400000000000007	0	n	n	0.4341829293862247	81	9	1	2021_Jun_09_1137	Motor	
0.0165	1	0.01815	0	n	n	0.5059733862526627	82	9	1	2021_Jun_09_1137	Motor	
0.025	1	0.016750000000000008	0	n	n	0.6528458831016906	83	9	1	2021_Jun_09_1137	Motor	
0.025	1	0.016750000000000008	0	n	n	0.47664942028677615	84	9	1	2021_Jun_09_1137	Motor	
0.0165	1	0.01815	0	n	n	0.5634405414602952	85	9	1	2021_Jun_09_1137	Motor	
0.025	1	0.016750000000000008	0	n	n	0.5514615135907661	86	9	1	2021_Jun_09_1137	Motor	
0.0165	1	0.0165	0	n	n	0.48432466099257	87	9	1	2021_Jun_09_1137	Motor	
0.0165	1	0.0165	0	n	n	0.45000188156245713	88	9	1	2021_Jun_09_1137	Motor	
0.025	0	0.015100000000000008	90	n	x	0.4068837555068967	89	9	1	2021_Jun_09_1137	Motor	
0.0165	1	0.0165	90	x	x	0.8647474980980405	90	9	1	2021_Jun_09_1137	Motor	
0.025	1	0.016750000000000008	90	x	x	0.611439595302727	91	9	1	2021_Jun_09_1137	Motor	
0.025	1	0.016750000000000008	90	x	x	0.7262199247534227	92	9	1	2021_Jun_09_1137	Motor	
0.0165	1	0.01485	90	x	x	0.6351757034171897	93	9	1	2021_Jun_09_1137	Motor	
0.0165	1	0.01485	0	n	n	0.43998313505198894	94	9	1	2021_Jun_09_1137	Motor	
0.025	1	0.016750000000000008	90	x	x	0.7528451919151848	95	9	1	2021_Jun_09_1137	Motor	
0.0165	0	0.01485	0	x	n	0.8085548137678416	96	9	1	2021_Jun_09_1137	Motor	
0.025	1	0.015100000000000008	90	x	x	0.6153885734602227	97	9	1	2021_Jun_09_1137	Motor	
0.025	1	0.015100000000000008	0	n	n	0.5373060166239156	98	9	1	2021_Jun_09_1137	Motor	
0.0165	1	0.0165	90	x	x	0.810169117946316	99	9	1	2021_Jun_09_1137	Motor	
