subject_id,trial,effector_order,block,condition,stim1,gabor.contrast,pressed_gabor,expected_gabor,pressed_cue,expected_cue,rt_gabor,rt_cue,accuracy_gabor,accuracy_cue,congruency,SDT,pressed_conf,conf,rt_conf,trial_start_time_rel2bloc,bloc_start_time_rel2exp,exp_start_date,effector
14,1,hand2,1,cue,black,-1,-1,-1,4,4,-1,0.2742466260506262,-1,1,none,none,-1,-1,-1,0,19589,12:15:30.583463,hand
14,2,hand2,1,cue,black,-1,-1,-1,4,4,-1,0.20598390764462238,-1,1,none,none,-1,-1,-1,2749,19589,12:15:30.583463,hand
14,3,hand2,1,cue,white,-1,-1,-1,3,3,-1,0.7649044742029218,-1,1,none,none,-1,-1,-1,5399,19589,12:15:30.583463,hand
14,4,hand2,1,cue,black,-1,-1,-1,4,4,-1,0.2726860808124911,-1,1,none,none,-1,-1,-1,8699,19589,12:15:30.583463,hand
14,5,hand2,1,gabor,0,0.01743189821864678,3,3,-1,4,0.2765494286568355,-1,1,-1,incongruent,hit,c,2,0.946420000168473,11315,19589,12:15:30.583463,hand
14,6,hand2,1,cue,black,-1,-1,-1,4,4,-1,0.28710192464677675,-1,1,none,none,-1,-1,-1,15881,19589,12:15:30.583463,hand
14,7,hand2,1,gabor,0,0.01743189821864678,3,3,-1,4,0.2832347368766932,-1,1,-1,incongruent,hit,4,2,0.7571044359574444,18598,19589,12:15:30.583463,hand
14,8,hand2,1,cue,white,-1,-1,-1,3,3,-1,0.35880521523176867,-1,1,none,none,-1,-1,-1,25714,19589,12:15:30.583463,hand
14,9,hand2,1,cue,white,-1,-1,-1,3,3,-1,0.2325611757541992,-1,1,none,none,-1,-1,-1,28514,19589,12:15:30.583463,hand
14,10,hand2,1,cue,black,-1,-1,-1,4,4,-1,0.5744407726233476,-1,1,none,none,-1,-1,-1,31180,19589,12:15:30.583463,hand
14,11,hand2,1,cue,black,-1,-1,-1,4,4,-1,0.21513751920883806,-1,1,none,none,-1,-1,-1,34198,19589,12:15:30.583463,hand
14,12,hand2,1,gabor,0,0.01743189821864678,4,3,-1,3,0.44516626488257316,-1,0,-1,incongruent,miss,3,1,2.5059730022603617,36848,19589,12:15:30.583463,hand
14,13,hand2,1,cue,black,-1,-1,-1,4,4,-1,0.2397452901404904,-1,1,none,none,-1,-1,-1,43047,19589,12:15:30.583463,hand
14,14,hand2,1,gabor,90,0.01743189821864678,4,4,-1,4,0.3986002707915759,-1,1,-1,congruent,CR,3,2,1.1355109288087988,45731,19589,12:15:30.583463,hand
14,15,hand2,1,cue,black,-1,-1,-1,4,4,-1,0.34930869842719403,-1,1,none,none,-1,-1,-1,50496,19589,12:15:30.583463,hand
14,16,hand2,1,cue,white,-1,-1,-1,3,3,-1,0.4402465538596516,-1,1,none,none,-1,-1,-1,53180,19589,12:15:30.583463,hand
14,17,hand2,1,cue,white,-1,-1,-1,3,3,-1,0.3340503751996948,-1,1,none,none,-1,-1,-1,56064,19589,12:15:30.583463,hand
14,18,hand2,1,gabor,90,0.01743189821864678,4,4,-1,3,0.39778275090611714,-1,1,-1,incongruent,CR,c,3,1.9067835334835763,58830,19589,12:15:30.583463,hand
14,19,hand2,1,gabor,90,0.01743189821864678,4,4,-1,3,0.6334711610161321,-1,1,-1,incongruent,CR,q,3,2.035299272180964,64580,19589,12:15:30.583463,hand
14,20,hand2,1,cue,white,-1,-1,-1,3,3,-1,0.35220054542241996,-1,1,none,none,-1,-1,-1,70480,19589,12:15:30.583463,hand
14,21,hand2,1,cue,white,-1,-1,-1,3,3,-1,0.27509985723190766,-1,1,none,none,-1,-1,-1,73163,19589,12:15:30.583463,hand
14,22,hand2,1,cue,black,-1,-1,-1,4,4,-1,0.25891764821517427,-1,1,none,none,-1,-1,-1,75981,19589,12:15:30.583463,hand
14,23,hand2,1,cue,white,-1,-1,-1,3,3,-1,0.24173475492443686,-1,1,none,none,-1,-1,-1,78680,19589,12:15:30.583463,hand
14,24,hand2,1,gabor,90,0.01743189821864678,4,4,-1,3,0.3166128949260383,-1,1,-1,incongruent,CR,q,4,0.9575473328268345,81263,19589,12:15:30.583463,hand
14,25,hand2,1,gabor,90,0.01743189821864678,4,4,-1,4,0.3712146986163134,-1,1,-1,congruent,CR,4,3,0.9051995647059812,85879,19589,12:15:30.583463,hand
14,26,hand2,1,cue,black,-1,-1,-1,4,4,-1,0.23296743974515266,-1,1,none,none,-1,-1,-1,94262,19589,12:15:30.583463,hand
14,27,hand2,1,cue,black,-1,-1,-1,4,4,-1,0.33444435143246665,-1,1,none,none,-1,-1,-1,100595,19589,12:15:30.583463,hand
14,28,hand2,1,gabor,0,0.01743189821864678,4,3,-1,4,0.36026822639269085,-1,0,-1,congruent,miss,c,2,0.861284270365104,103463,19589,12:15:30.583463,hand
14,29,hand2,1,cue,white,-1,-1,-1,3,3,-1,0.20907082279609313,-1,1,none,none,-1,-1,-1,108113,19589,12:15:30.583463,hand
14,30,hand2,1,cue,white,-1,-1,-1,3,3,-1,0.2656428916470759,-1,1,none,none,-1,-1,-1,110863,19589,12:15:30.583463,hand
14,31,hand2,1,cue,white,-1,-1,-1,3,3,-1,0.27858535652558203,-1,1,none,none,-1,-1,-1,113561,19589,12:15:30.583463,hand
14,32,hand2,1,cue,white,-1,-1,-1,3,3,-1,0.1934934018581771,-1,1,none,none,-1,-1,-1,116379,19589,12:15:30.583463,hand
14,33,hand2,1,gabor,0,0.01743189821864678,3,3,-1,3,0.44040245478663564,-1,1,-1,congruent,hit,3,1,1.4272683776862323,119112,19589,12:15:30.583463,hand
14,34,hand2,1,cue,black,-1,-1,-1,4,4,-1,0.2773665645499932,-1,1,none,none,-1,-1,-1,124211,19589,12:15:30.583463,hand
14,35,hand2,1,gabor,90,0.01743189821864678,4,4,-1,4,0.35883900656517653,-1,1,-1,congruent,CR,4,2,0.6868695324274086,126828,19589,12:15:30.583463,hand
14,36,hand2,1,gabor,0,0.01743189821864678,4,3,-1,3,0.3937120471473463,-1,0,-1,incongruent,miss,4,2,0.7166696490075992,131211,19589,12:15:30.583463,hand
14,37,hand2,2,cue,black,-1,-1,-1,4,4,-1,0.4313475292774456,-1,1,none,none,-1,-1,-1,140194,19589,12:15:30.583463,hand
14,38,hand2,2,cue,black,-1,-1,-1,4,4,-1,0.36382591626352223,-1,1,none,none,-1,-1,-1,146844,19589,12:15:30.583463,hand
14,39,hand2,2,cue,white,-1,-1,-1,3,3,-1,0.37963104471236875,-1,1,none,none,-1,-1,-1,149744,19589,12:15:30.583463,hand
14,40,hand2,2,cue,black,-1,-1,-1,4,4,-1,0.2655553413733287,-1,1,none,none,-1,-1,-1,152560,19589,12:15:30.583463,hand
14,41,hand2,2,cue,white,-1,-1,-1,3,3,-1,0.22844823282866855,-1,1,none,none,-1,-1,-1,155260,19589,12:15:30.583463,hand
14,42,hand2,2,gabor,0,0.01743189821864678,4,3,-1,4,0.335193136673297,-1,0,-1,congruent,miss,q,2,1.5601942694502213,157827,19589,12:15:30.583463,hand
14,43,hand2,2,cue,white,-1,-1,-1,3,3,-1,0.2039337720580079,-1,1,none,none,-1,-1,-1,163060,19589,12:15:30.583463,hand
14,44,hand2,2,cue,black,-1,-1,-1,4,4,-1,0.1627467439357133,-1,1,none,none,-1,-1,-1,165794,19589,12:15:30.583463,hand
14,45,hand2,2,cue,white,-1,-1,-1,3,3,-1,0.2045416320752338,-1,1,none,none,-1,-1,-1,168293,19589,12:15:30.583463,hand
14,46,hand2,2,gabor,0,0.01743189821864678,4,3,-1,3,0.2503212096680727,-1,0,-1,incongruent,miss,c,2,0.9004157870040217,171027,19589,12:15:30.583463,hand
14,47,hand2,2,gabor,90,0.01743189821864678,4,4,-1,4,0.36428017930848,-1,1,-1,congruent,CR,4,2,0.8431847871415812,175427,19589,12:15:30.583463,hand
14,48,hand2,2,cue,black,-1,-1,-1,4,4,-1,0.21672225597103534,-1,1,none,none,-1,-1,-1,182892,19589,12:15:30.583463,hand
14,49,hand2,2,cue,black,-1,-1,-1,4,4,-1,0.29564652421595383,-1,1,none,none,-1,-1,-1,185442,19589,12:15:30.583463,hand
14,50,hand2,2,gabor,90,0.01743189821864678,4,4,-1,3,0.46737523509909806,-1,1,-1,incongruent,CR,4,3,1.0323793937368464,188076,19589,12:15:30.583463,hand
14,51,hand2,2,gabor,90,0.01743189821864678,4,4,-1,3,0.4409404281823299,-1,1,-1,incongruent,CR,3,3,2.486132113363965,193010,19589,12:15:30.583463,hand
14,52,hand2,2,gabor,90,0.01743189821864678,4,4,-1,4,0.3247765740043178,-1,1,-1,congruent,CR,3,3,1.1316471969703343,199377,19589,12:15:30.583463,hand
14,53,hand2,2,cue,black,-1,-1,-1,4,4,-1,0.33252630924198456,-1,1,none,none,-1,-1,-1,204075,19589,12:15:30.583463,hand
14,54,hand2,2,cue,white,-1,-1,-1,3,3,-1,0.20925245121543412,-1,1,none,none,-1,-1,-1,206741,19589,12:15:30.583463,hand
14,55,hand2,2,gabor,0,0.01743189821864678,4,3,-1,3,0.33325051896554214,-1,0,-1,incongruent,miss,3,3,1.2252253843571452,209376,19589,12:15:30.583463,hand
14,56,hand2,2,cue,white,-1,-1,-1,3,3,-1,0.4230440769551933,-1,1,none,none,-1,-1,-1,214175,19589,12:15:30.583463,hand
14,57,hand2,2,gabor,0,0.01743189821864678,4,3,-1,4,0.7727267840100467,-1,0,-1,congruent,miss,4,1,0.7866361418282395,217025,19589,12:15:30.583463,hand
14,58,hand2,2,cue,white,-1,-1,-1,3,3,-1,0.20453395222648396,-1,1,none,none,-1,-1,-1,222026,19589,12:15:30.583463,hand
14,59,hand2,2,gabor,0,0.01743189821864678,4,3,-1,3,0.43544319254397124,-1,0,-1,incongruent,miss,q,1,0.8412414014492242,224557,19589,12:15:30.583463,hand
14,60,hand2,2,cue,black,-1,-1,-1,4,4,-1,0.2152116297484099,-1,1,none,none,-1,-1,-1,229175,19589,12:15:30.583463,hand
14,61,hand2,2,cue,black,-1,-1,-1,4,4,-1,0.350046731879047,-1,1,none,none,-1,-1,-1,231825,19589,12:15:30.583463,hand
14,62,hand2,2,gabor,0,0.01743189821864678,4,3,-1,4,0.3027331045250321,-1,0,-1,congruent,miss,q,1,0.9087169353715581,234607,19589,12:15:30.583463,hand
14,63,hand2,2,cue,white,-1,-1,-1,3,3,-1,0.1625217243717998,-1,1,none,none,-1,-1,-1,239057,19589,12:15:30.583463,hand
14,64,hand2,2,cue,black,-1,-1,-1,4,4,-1,0.19139027531491593,-1,1,none,none,-1,-1,-1,241557,19589,12:15:30.583463,hand
14,65,hand2,2,gabor,90,0.01743189821864678,4,4,-1,3,0.41806254315088154,-1,1,-1,incongruent,CR,3,2,2.249177296216658,244175,19589,12:15:30.583463,hand
14,66,hand2,2,cue,white,-1,-1,-1,3,3,-1,0.18899915444853832,-1,1,none,none,-1,-1,-1,250275,19589,12:15:30.583463,hand
14,67,hand2,2,cue,black,-1,-1,-1,4,4,-1,0.2557504786464051,-1,1,none,none,-1,-1,-1,252890,19589,12:15:30.583463,hand
14,68,hand2,2,cue,white,-1,-1,-1,3,3,-1,0.339622489361318,-1,1,none,none,-1,-1,-1,255474,19589,12:15:30.583463,hand
14,69,hand2,2,cue,white,-1,-1,-1,3,3,-1,0.2124710757698267,-1,1,none,none,-1,-1,-1,258341,19589,12:15:30.583463,hand
14,70,hand2,2,cue,white,-1,-1,-1,3,3,-1,0.23926913952709583,-1,1,none,none,-1,-1,-1,260991,19589,12:15:30.583463,hand
14,71,hand2,2,gabor,90,0.01743189821864678,4,4,-1,4,0.32596080666098715,-1,1,-1,congruent,CR,3,3,1.4729895884293,263758,19589,12:15:30.583463,hand
14,72,hand2,2,cue,black,-1,-1,-1,4,4,-1,0.2296977441983472,-1,1,none,none,-1,-1,-1,271706,19589,12:15:30.583463,hand
14,73,hand2,3,cue,black,-1,-1,-1,4,4,-1,0.21026196731600066,-1,1,none,none,-1,-1,-1,279456,19589,12:15:30.583463,hand
14,74,hand2,3,cue,black,-1,-1,-1,4,4,-1,0.2392430280415283,-1,1,none,none,-1,-1,-1,282224,19589,12:15:30.583463,hand
14,75,hand2,3,gabor,0,0.01743189821864678,4,3,-1,4,0.27375780368583946,-1,0,-1,congruent,miss,c,2,0.7436950362834978,287622,19589,12:15:30.583463,hand
14,76,hand2,3,cue,black,-1,-1,-1,4,4,-1,0.1575014073323473,-1,1,none,none,-1,-1,-1,292073,19589,12:15:30.583463,hand
14,77,hand2,3,cue,white,-1,-1,-1,3,3,-1,0.21141087266823888,-1,1,none,none,-1,-1,-1,294756,19589,12:15:30.583463,hand
14,78,hand2,3,cue,white,-1,-1,-1,3,3,-1,0.21225488803156622,-1,1,none,none,-1,-1,-1,297507,19589,12:15:30.583463,hand
14,79,hand2,3,cue,black,-1,-1,-1,4,4,-1,0.2071727482107235,-1,1,none,none,-1,-1,-1,300056,19589,12:15:30.583463,hand
14,80,hand2,3,cue,black,-1,-1,-1,4,4,-1,0.2270700839944766,-1,1,none,none,-1,-1,-1,302589,19589,12:15:30.583463,hand
14,81,hand2,3,cue,white,-1,-1,-1,3,3,-1,0.17902495106045535,-1,1,none,none,-1,-1,-1,305238,19589,12:15:30.583463,hand
14,82,hand2,3,gabor,90,0.01743189821864678,4,4,-1,4,0.23855068968896376,-1,1,-1,congruent,CR,3,3,0.9986260750829388,307755,19589,12:15:30.583463,hand
14,83,hand2,3,cue,black,-1,-1,-1,4,4,-1,0.18037698840907979,-1,1,none,none,-1,-1,-1,312439,19589,12:15:30.583463,hand
14,84,hand2,3,cue,black,-1,-1,-1,4,4,-1,0.2052908013074557,-1,1,none,none,-1,-1,-1,314955,19589,12:15:30.583463,hand
14,85,hand2,3,cue,black,-1,-1,-1,4,4,-1,0.30605233509595564,-1,1,none,none,-1,-1,-1,317588,19589,12:15:30.583463,hand
14,86,hand2,3,cue,black,-1,-1,-1,4,4,-1,0.35889391748332855,-1,1,none,none,-1,-1,-1,320321,19589,12:15:30.583463,hand
14,87,hand2,3,cue,white,-1,-1,-1,3,3,-1,0.3348582952730794,-1,1,none,none,-1,-1,-1,323005,19589,12:15:30.583463,hand
14,88,hand2,3,cue,white,-1,-1,-1,3,3,-1,0.26957766208579415,-1,1,none,none,-1,-1,-1,325671,19589,12:15:30.583463,hand
14,89,hand2,3,cue,white,-1,-1,-1,3,3,-1,0.2253739894276805,-1,1,none,none,-1,-1,-1,328472,19589,12:15:30.583463,hand
14,90,hand2,3,cue,white,-1,-1,-1,3,3,-1,0.20519057928322582,-1,1,none,none,-1,-1,-1,331122,19589,12:15:30.583463,hand
14,91,hand2,3,gabor,90,0.01743189821864678,4,4,-1,4,0.31319728225480503,-1,1,-1,congruent,CR,q,3,0.9101810985102929,333856,19589,12:15:30.583463,hand
14,92,hand2,3,gabor,90,0.01743189821864678,4,4,-1,3,0.4058243203908205,-1,1,-1,incongruent,CR,4,3,0.7097969524820655,338404,19589,12:15:30.583463,hand
14,93,hand2,3,cue,white,-1,-1,-1,3,3,-1,0.20868683036587754,-1,1,none,none,-1,-1,-1,342854,19589,12:15:30.583463,hand
14,94,hand2,3,cue,black,-1,-1,-1,4,4,-1,0.23654816916314303,-1,1,none,none,-1,-1,-1,345487,19589,12:15:30.583463,hand
14,95,hand2,3,cue,white,-1,-1,-1,3,3,-1,0.2932235319776737,-1,1,none,none,-1,-1,-1,348255,19589,12:15:30.583463,hand
14,96,hand2,3,gabor,90,0.01743189821864678,4,4,-1,3,0.23523030714022752,-1,1,-1,incongruent,CR,4,3,1.2571055879343476,350871,19589,12:15:30.583463,hand
14,97,hand2,3,gabor,0,0.01743189821864678,4,3,-1,4,0.3477957682498527,-1,0,-1,congruent,miss,c,3,1.3187002777794987,355604,19589,12:15:30.583463,hand
14,98,hand2,3,gabor,0,0.01743189821864678,4,3,-1,3,0.5745978255281443,-1,0,-1,incongruent,miss,q,2,1.0095318441080963,360520,19589,12:15:30.583463,hand
14,99,hand2,3,cue,black,-1,-1,-1,4,4,-1,0.43731822758309136,-1,1,none,none,-1,-1,-1,365336,19589,12:15:30.583463,hand
14,100,hand2,3,gabor,90,0.01743189821864678,4,4,-1,4,0.29623902453658957,-1,1,-1,congruent,CR,3,3,1.0682500466546117,368104,19589,12:15:30.583463,hand
14,101,hand2,3,gabor,0,0.01743189821864678,4,3,-1,3,0.6740534010596093,-1,0,-1,incongruent,miss,3,2,0.9828086588759106,372703,19589,12:15:30.583463,hand
14,102,hand2,3,cue,black,-1,-1,-1,4,4,-1,0.3167265566862625,-1,1,none,none,-1,-1,-1,377702,19589,12:15:30.583463,hand
14,103,hand2,3,gabor,90,0.01743189821864678,4,4,-1,3,0.3393901739409557,-1,1,-1,incongruent,CR,c,3,1.286434161809666,380453,19589,12:15:30.583463,hand
14,104,hand2,3,gabor,0,0.01743189821864678,4,3,-1,4,0.42517024304379447,-1,0,-1,congruent,miss,4,1,1.179210803396927,385320,19589,12:15:30.583463,hand
14,105,hand2,3,cue,white,-1,-1,-1,3,3,-1,0.21181483270629542,-1,1,none,none,-1,-1,-1,390253,19589,12:15:30.583463,hand
14,106,hand2,3,cue,white,-1,-1,-1,3,3,-1,0.23776350520620326,-1,1,none,none,-1,-1,-1,392786,19589,12:15:30.583463,hand
14,107,hand2,3,gabor,0,0.01743189821864678,4,3,-1,3,0.29657962582223263,-1,0,-1,incongruent,miss,3,2,0.6715839457374386,395352,19589,12:15:30.583463,hand
14,108,hand2,3,cue,white,-1,-1,-1,3,3,-1,0.2583842827289118,-1,1,none,none,-1,-1,-1,399770,19589,12:15:30.583463,hand
14,109,hand2,4,cue,black,-1,-1,-1,4,4,-1,0.23515850055537157,-1,1,none,none,-1,-1,-1,405852,19589,12:15:30.583463,hand
14,110,hand2,4,cue,white,-1,-1,-1,3,3,-1,0.26908231184916076,-1,1,none,none,-1,-1,-1,408636,19589,12:15:30.583463,hand
14,111,hand2,4,cue,white,-1,-1,-1,3,3,-1,0.20069479590438277,-1,1,none,none,-1,-1,-1,411436,19589,12:15:30.583463,hand
14,112,hand2,4,cue,black,-1,-1,-1,4,4,-1,0.19152928057428653,-1,1,none,none,-1,-1,-1,413968,19589,12:15:30.583463,hand
14,113,hand2,4,gabor,90,0.01743189821864678,4,4,-1,4,0.37536220085985406,-1,1,-1,congruent,CR,c,2,0.7412731960221208,416686,19589,12:15:30.583463,hand
14,114,hand2,4,cue,white,-1,-1,-1,3,3,-1,0.30516838452058437,-1,1,none,none,-1,-1,-1,421135,19589,12:15:30.583463,hand
14,115,hand2,4,cue,black,-1,-1,-1,4,4,-1,0.7356665225415782,-1,1,none,none,-1,-1,-1,427535,19589,12:15:30.583463,hand
14,116,hand2,4,gabor,0,0.01743189821864678,4,3,-1,3,0.411459025320255,-1,0,-1,incongruent,miss,c,1,1.2873215683175658,430802,19589,12:15:30.583463,hand
14,117,hand2,4,gabor,0,0.01743189821864678,4,3,-1,4,0.3782743994543125,-1,0,-1,congruent,miss,c,1,1.3393014716893958,435936,19589,12:15:30.583463,hand
14,118,hand2,4,cue,white,-1,-1,-1,3,3,-1,0.22205245490204106,-1,1,none,none,-1,-1,-1,440984,19589,12:15:30.583463,hand
14,119,hand2,4,cue,black,-1,-1,-1,4,4,-1,0.5889710462024595,-1,1,none,none,-1,-1,-1,443634,19589,12:15:30.583463,hand
14,120,hand2,4,cue,black,-1,-1,-1,4,4,-1,0.1996752960003505,-1,1,none,none,-1,-1,-1,446651,19589,12:15:30.583463,hand
14,121,hand2,4,gabor,0,0.01743189821864678,4,3,-1,4,0.30249925313455606,-1,0,-1,congruent,miss,3,1,1.1784397465962684,449385,19589,12:15:30.583463,hand
14,122,hand2,4,cue,white,-1,-1,-1,3,3,-1,0.22525034386490006,-1,1,none,none,-1,-1,-1,454101,19589,12:15:30.583463,hand
14,123,hand2,4,cue,white,-1,-1,-1,3,3,-1,0.22019892343905667,-1,1,none,none,-1,-1,-1,456651,19589,12:15:30.583463,hand
14,124,hand2,4,gabor,0,0.01743189821864678,4,3,-1,3,0.3390918118220725,-1,0,-1,incongruent,miss,q,1,0.7189847393728996,459300,19589,12:15:30.583463,hand
14,125,hand2,4,cue,black,-1,-1,-1,4,4,-1,0.16668305034363584,-1,1,none,none,-1,-1,-1,463801,19589,12:15:30.583463,hand
14,126,hand2,4,cue,black,-1,-1,-1,4,4,-1,0.196693594775752,-1,1,none,none,-1,-1,-1,466300,19589,12:15:30.583463,hand
14,127,hand2,4,gabor,90,0.01743189821864678,4,4,-1,3,0.3823378073575441,-1,1,-1,incongruent,CR,q,1,0.8083397780064843,469034,19589,12:15:30.583463,hand
14,128,hand2,4,cue,white,-1,-1,-1,3,3,-1,0.21021051233037724,-1,1,none,none,-1,-1,-1,473467,19589,12:15:30.583463,hand
14,129,hand2,4,gabor,90,0.01743189821864678,3,4,-1,3,0.4021034337374658,-1,0,-1,congruent,FA,3,1,1.2820186328490308,476201,19589,12:15:30.583463,hand
14,130,hand2,4,cue,black,-1,-1,-1,4,4,-1,0.1787016294338173,-1,1,none,none,-1,-1,-1,481133,19589,12:15:30.583463,hand
14,131,hand2,4,gabor,0,0.01743189821864678,4,3,-1,3,0.4766682359158949,-1,0,-1,incongruent,miss,q,1,0.8005416597225121,483749,19589,12:15:30.583463,hand
14,132,hand2,4,cue,black,-1,-1,-1,4,4,-1,0.2523605934684383,-1,1,none,none,-1,-1,-1,488367,19589,12:15:30.583463,hand
14,133,hand2,4,cue,white,-1,-1,-1,3,3,-1,0.19723886402789503,-1,1,none,none,-1,-1,-1,490950,19589,12:15:30.583463,hand
14,134,hand2,4,cue,white,-1,-1,-1,3,3,-1,0.1700905991738182,-1,1,none,none,-1,-1,-1,493583,19589,12:15:30.583463,hand
14,135,hand2,4,gabor,90,0.01743189821864678,4,4,-1,4,0.3507959011112689,-1,1,-1,congruent,CR,c,2,0.7368484512426221,496082,19589,12:15:30.583463,hand
14,136,hand2,4,cue,black,-1,-1,-1,4,4,-1,0.2656210040786391,-1,1,none,none,-1,-1,-1,500600,19589,12:15:30.583463,hand
14,137,hand2,4,gabor,90,0.01743189821864678,4,4,-1,4,0.31331900785608013,-1,1,-1,congruent,CR,q,3,0.9492634641183031,503400,19589,12:15:30.583463,hand
14,138,hand2,4,cue,white,-1,-1,-1,4,3,-1,0.47416882918423653,-1,0,none,none,-1,-1,-1,507916,19589,12:15:30.583463,hand
14,139,hand2,4,cue,black,-1,-1,-1,3,4,-1,0.49305472890500823,-1,0,none,none,-1,-1,-1,510716,19589,12:15:30.583463,hand
14,140,hand2,4,cue,black,-1,-1,-1,4,4,-1,0.23081861810351256,-1,1,none,none,-1,-1,-1,513733,19589,12:15:30.583463,hand
14,141,hand2,4,gabor,90,0.01743189821864678,4,4,-1,3,0.34569340969119366,-1,1,-1,incongruent,CR,4,2,0.7006825081462011,516500,19589,12:15:30.583463,hand
14,142,hand2,4,cue,white,-1,-1,-1,3,3,-1,0.16543699490557628,-1,1,none,none,-1,-1,-1,520999,19589,12:15:30.583463,hand
14,143,hand2,4,cue,white,-1,-1,-1,3,3,-1,0.23126251335270354,-1,1,none,none,-1,-1,-1,523700,19589,12:15:30.583463,hand
14,144,hand2,4,gabor,0,0.01743189821864678,3,3,-1,4,0.6702560999110574,-1,1,-1,incongruent,hit,4,2,2.831032962678364,526365,19589,12:15:30.583463,hand
14,145,hand2,5,cue,black,-1,-1,-1,4,4,-1,0.2283821861301476,-1,1,none,none,-1,-1,-1,539147,19589,12:15:30.583463,hand
14,146,hand2,5,gabor,0,0.01743189821864678,3,3,-1,3,0.43325981158250215,-1,1,-1,congruent,hit,4,2,0.7042993328514058,541731,19589,12:15:30.583463,hand
14,147,hand2,5,cue,black,-1,-1,-1,4,4,-1,0.1922822897313381,-1,1,none,none,-1,-1,-1,546114,19589,12:15:30.583463,hand
14,148,hand2,5,cue,black,-1,-1,-1,4,4,-1,0.33903229299539817,-1,1,none,none,-1,-1,-1,548832,19589,12:15:30.583463,hand
14,149,hand2,5,cue,white,-1,-1,-1,3,3,-1,0.17468276465388044,-1,1,none,none,-1,-1,-1,551698,19589,12:15:30.583463,hand
14,150,hand2,5,gabor,90,0.01743189821864678,4,4,-1,4,0.49449892443681165,-1,1,-1,congruent,CR,4,1,0.6524991379374114,554398,19589,12:15:30.583463,hand
14,151,hand2,5,cue,white,-1,-1,-1,3,3,-1,0.3803460386188817,-1,1,none,none,-1,-1,-1,558781,19589,12:15:30.583463,hand
14,152,hand2,5,cue,black,-1,-1,-1,4,4,-1,0.1952271276832107,-1,1,none,none,-1,-1,-1,561699,19589,12:15:30.583463,hand
14,153,hand2,5,cue,black,-1,-1,-1,4,4,-1,0.241989341905537,-1,1,none,none,-1,-1,-1,564231,19589,12:15:30.583463,hand
14,154,hand2,5,gabor,90,0.01743189821864678,4,4,-1,3,0.4828032829818767,-1,1,-1,incongruent,CR,c,2,0.9046669672052303,566797,19589,12:15:30.583463,hand
14,155,hand2,5,cue,white,-1,-1,-1,3,3,-1,0.4765480462847336,-1,1,none,none,-1,-1,-1,571631,19589,12:15:30.583463,hand
14,156,hand2,5,gabor,0,0.01743189821864678,3,3,-1,4,0.40843431694247556,-1,1,-1,incongruent,hit,q,2,0.8302718896802617,574530,19589,12:15:30.583463,hand
14,157,hand2,5,gabor,90,0.01743189821864678,4,4,-1,4,0.4872418514887613,-1,1,-1,congruent,CR,3,3,0.9659717427648502,579214,19589,12:15:30.583463,hand
14,158,hand2,5,cue,white,-1,-1,-1,3,3,-1,0.05889330309582874,-1,1,none,none,-1,-1,-1,583913,19589,12:15:30.583463,hand
14,159,hand2,5,cue,black,-1,-1,-1,4,4,-1,0.279715446249611,-1,1,none,none,-1,-1,-1,586497,19589,12:15:30.583463,hand
14,160,hand2,5,cue,white,-1,-1,-1,3,3,-1,0.2105384418664471,-1,1,none,none,-1,-1,-1,589314,19589,12:15:30.583463,hand
14,161,hand2,5,gabor,90,0.01743189821864678,4,4,-1,3,0.4173275816383466,-1,1,-1,incongruent,CR,c,3,1.2902913657762838,591845,19589,12:15:30.583463,hand
14,162,hand2,5,gabor,90,0.01743189821864678,4,4,-1,4,0.41121979803483555,-1,1,-1,congruent,CR,4,3,0.7190584659192609,596997,19589,12:15:30.583463,hand
14,163,hand2,5,gabor,0,0.01743189821864678,4,3,-1,3,0.7098710630216374,-1,0,-1,incongruent,miss,c,2,0.8867487284096569,601462,19589,12:15:30.583463,hand
14,164,hand2,5,cue,black,-1,-1,-1,4,4,-1,0.34853034577008657,-1,1,none,none,-1,-1,-1,606295,19589,12:15:30.583463,hand
14,165,hand2,5,gabor,90,0.01743189821864678,4,4,-1,3,0.5003751606045626,-1,1,-1,incongruent,CR,4,2,0.7933110822523304,609078,19589,12:15:30.583463,hand
14,166,hand2,5,cue,black,-1,-1,-1,4,4,-1,0.2061916475504404,-1,1,none,none,-1,-1,-1,613712,19589,12:15:30.583463,hand
14,167,hand2,5,cue,white,-1,-1,-1,3,3,-1,0.20618857561112236,-1,1,none,none,-1,-1,-1,616345,19589,12:15:30.583463,hand
14,168,hand2,5,cue,black,-1,-1,-1,4,4,-1,0.24981510764428094,-1,1,none,none,-1,-1,-1,619079,19589,12:15:30.583463,hand
14,169,hand2,5,gabor,0,0.01743189821864678,4,3,-1,4,0.5996237642166307,-1,0,-1,congruent,miss,q,1,0.7664918989121361,621762,19589,12:15:30.583463,hand
14,170,hand2,5,gabor,0,0.01743189821864678,3,3,-1,3,0.5443849170851536,-1,1,-1,congruent,hit,c,2,1.600355653788938,626579,19589,12:15:30.583463,hand
14,171,hand2,5,cue,black,-1,-1,-1,4,4,-1,0.2761930836813917,-1,1,none,none,-1,-1,-1,632179,19589,12:15:30.583463,hand
14,172,hand2,5,cue,white,-1,-1,-1,3,3,-1,0.19596516113506368,-1,1,none,none,-1,-1,-1,634778,19589,12:15:30.583463,hand
14,173,hand2,5,gabor,0,0.01743189821864678,3,3,-1,4,0.5387363884274237,-1,1,-1,incongruent,hit,3,2,1.27670571357703,637512,19589,12:15:30.583463,hand
14,174,hand2,5,cue,black,-1,-1,-1,4,4,-1,0.3575084727926878,-1,1,none,none,-1,-1,-1,642661,19589,12:15:30.583463,hand
14,175,hand2,5,cue,white,-1,-1,-1,3,3,-1,0.1764068906668399,-1,1,none,none,-1,-1,-1,645445,19589,12:15:30.583463,hand
14,176,hand2,5,cue,white,-1,-1,-1,3,3,-1,0.2512727429120787,-1,1,none,none,-1,-1,-1,648044,19589,12:15:30.583463,hand
14,177,hand2,5,cue,white,-1,-1,-1,3,3,-1,0.2881690396125123,-1,1,none,none,-1,-1,-1,650829,19589,12:15:30.583463,hand
14,178,hand2,5,cue,black,-1,-1,-1,4,4,-1,0.22895587082166458,-1,1,none,none,-1,-1,-1,653444,19589,12:15:30.583463,hand
14,179,hand2,5,cue,white,-1,-1,-1,3,3,-1,0.2477611321319273,-1,1,none,none,-1,-1,-1,656011,19589,12:15:30.583463,hand
14,180,hand2,5,cue,white,-1,-1,-1,3,3,-1,0.35157079783584777,-1,1,none,none,-1,-1,-1,658594,19589,12:15:30.583463,hand
14,181,hand2,6,cue,white,-1,-1,-1,3,3,-1,0.18270513451625447,-1,1,none,none,-1,-1,-1,673393,19589,12:15:30.583463,hand
14,182,hand2,6,cue,black,-1,-1,-1,4,4,-1,0.2305494394095149,-1,1,none,none,-1,-1,-1,676043,19589,12:15:30.583463,hand
14,183,hand2,6,cue,white,-1,-1,-1,3,3,-1,0.3083992968331586,-1,1,none,none,-1,-1,-1,678610,19589,12:15:30.583463,hand
14,184,hand2,6,gabor,90,0.01743189821864678,4,4,-1,3,0.3162838134130652,-1,1,-1,incongruent,CR,c,3,1.5693313693400341,681243,19589,12:15:30.583463,hand
14,185,hand2,6,cue,white,-1,-1,-1,3,3,-1,0.48992787854149356,-1,1,none,none,-1,-1,-1,686578,19589,12:15:30.583463,hand
14,186,hand2,6,cue,black,-1,-1,-1,4,4,-1,0.19090990078439063,-1,1,none,none,-1,-1,-1,689393,19589,12:15:30.583463,hand
14,187,hand2,6,cue,black,-1,-1,-1,4,4,-1,0.2266231168050581,-1,1,none,none,-1,-1,-1,691909,19589,12:15:30.583463,hand
14,188,hand2,6,cue,white,-1,-1,-1,3,3,-1,0.1655091854827333,-1,1,none,none,-1,-1,-1,694459,19589,12:15:30.583463,hand
14,189,hand2,6,gabor,90,0.01743189821864678,4,4,-1,4,0.35733337224428396,-1,1,-1,congruent,CR,q,2,0.7033109363346739,697059,19589,12:15:30.583463,hand
14,190,hand2,6,cue,white,-1,-1,-1,3,3,-1,0.3531847180229306,-1,1,none,none,-1,-1,-1,701360,19589,12:15:30.583463,hand
14,191,hand2,6,gabor,90,0.01743189821864678,4,4,-1,4,0.4440937740228037,-1,1,-1,congruent,CR,4,1,0.8268355414174948,704143,19589,12:15:30.583463,hand
14,192,hand2,6,cue,black,-1,-1,-1,4,4,-1,0.2506971382581469,-1,1,none,none,-1,-1,-1,708742,19589,12:15:30.583463,hand
14,193,hand2,6,cue,white,-1,-1,-1,3,3,-1,0.6813258337051593,-1,1,none,none,-1,-1,-1,714991,19589,12:15:30.583463,hand
14,194,hand2,6,cue,white,-1,-1,-1,3,3,-1,0.32329820314589597,-1,1,none,none,-1,-1,-1,718109,19589,12:15:30.583463,hand
14,195,hand2,6,cue,black,-1,-1,-1,4,4,-1,0.31212248744122917,-1,1,none,none,-1,-1,-1,720859,19589,12:15:30.583463,hand
14,196,hand2,6,gabor,0,0.01743189821864678,4,3,-1,4,0.376901626515064,-1,0,-1,congruent,miss,4,2,0.7557904138593585,723509,19589,12:15:30.583463,hand
14,197,hand2,6,gabor,0,0.01743189821864678,4,3,-1,4,0.5145467852544243,-1,0,-1,congruent,miss,3,1,1.7395678856382801,727975,19589,12:15:30.583463,hand
14,198,hand2,6,cue,white,-1,-1,-1,3,3,-1,0.1702514920025351,-1,1,none,none,-1,-1,-1,733660,19589,12:15:30.583463,hand
14,199,hand2,6,gabor,90,0.01743189821864678,4,4,-1,3,0.3741507047416235,-1,1,-1,incongruent,CR,q,2,0.7800449117548851,736359,19589,12:15:30.583463,hand
14,200,hand2,6,gabor,0,0.01743189821864678,4,3,-1,3,0.3646872112849451,-1,0,-1,incongruent,miss,q,2,1.092835162033225,740959,19589,12:15:30.583463,hand
14,201,hand2,6,cue,black,-1,-1,-1,4,4,-1,0.22261538780549017,-1,1,none,none,-1,-1,-1,745741,19589,12:15:30.583463,hand
14,202,hand2,6,gabor,90,0.01743189821864678,4,4,-1,3,0.460367757230415,-1,1,-1,incongruent,CR,3,2,1.4012670982228883,748390,19589,12:15:30.583463,hand
14,203,hand2,6,gabor,0,0.01743189821864678,4,3,-1,3,0.5732093088972761,-1,0,-1,incongruent,miss,c,1,2.058964341695173,753591,19589,12:15:30.583463,hand
14,204,hand2,6,cue,black,-1,-1,-1,4,4,-1,0.18187455888892146,-1,1,none,none,-1,-1,-1,759659,19589,12:15:30.583463,hand
14,205,hand2,6,gabor,0,0.01743189821864678,4,3,-1,4,0.35260527344416914,-1,0,-1,congruent,miss,4,2,0.6785895036437068,762375,19589,12:15:30.583463,hand
14,206,hand2,6,cue,white,-1,-1,-1,3,3,-1,0.33237232827650587,-1,1,none,none,-1,-1,-1,766740,19589,12:15:30.583463,hand
14,207,hand2,6,gabor,0,0.01743189821864678,4,3,-1,3,0.34027105257700896,-1,0,-1,incongruent,miss,3,2,0.8182675183106767,769507,19589,12:15:30.583463,hand
14,208,hand2,6,cue,black,-1,-1,-1,4,4,-1,0.23208195320057712,-1,1,none,none,-1,-1,-1,773907,19589,12:15:30.583463,hand
14,209,hand2,6,cue,black,-1,-1,-1,4,4,-1,0.36290318245301023,-1,1,none,none,-1,-1,-1,776574,19589,12:15:30.583463,hand
14,210,hand2,6,cue,white,-1,-1,-1,3,3,-1,0.27470357704351045,-1,1,none,none,-1,-1,-1,779273,19589,12:15:30.583463,hand
14,211,hand2,6,cue,black,-1,-1,-1,4,4,-1,0.18152858170833497,-1,1,none,none,-1,-1,-1,782074,19589,12:15:30.583463,hand
14,212,hand2,6,cue,black,-1,-1,-1,4,4,-1,0.300365023204904,-1,1,none,none,-1,-1,-1,784589,19589,12:15:30.583463,hand
14,213,hand2,6,cue,white,-1,-1,-1,3,3,-1,0.19730529471871705,-1,1,none,none,-1,-1,-1,787223,19589,12:15:30.583463,hand
14,214,hand2,6,cue,white,-1,-1,-1,3,3,-1,0.1691828410675953,-1,1,none,none,-1,-1,-1,789856,19589,12:15:30.583463,hand
14,215,hand2,6,cue,black,-1,-1,-1,4,4,-1,0.24297965838468372,-1,1,none,none,-1,-1,-1,792557,19589,12:15:30.583463,hand
14,216,hand2,6,gabor,90,0.01743189821864678,4,4,-1,4,0.5537320608336813,-1,1,-1,congruent,CR,4,1,0.6626991288749196,795324,19589,12:15:30.583463,hand
14,217,hand2,7,cue,black,-1,-1,-1,4,4,-1,0.41727535866812104,-1,1,none,none,-1,-1,-1,806256,19589,12:15:30.583463,hand
14,218,hand2,7,cue,white,-1,-1,-1,3,3,-1,0.208894186278485,-1,1,none,none,-1,-1,-1,811972,19589,12:15:30.583463,hand
14,219,hand2,7,cue,white,-1,-1,-1,3,3,-1,0.19668130701757036,-1,1,none,none,-1,-1,-1,814605,19589,12:15:30.583463,hand
14,220,hand2,7,gabor,0,0.01743189821864678,4,3,-1,4,0.4403329521574051,-1,0,-1,congruent,miss,4,1,0.6694685314369053,817239,19589,12:15:30.583463,hand
14,221,hand2,7,gabor,90,0.01743189821864678,4,4,-1,4,0.35732300444851717,-1,1,-1,congruent,CR,4,2,0.7582433575071263,821689,19589,12:15:30.583463,hand
14,222,hand2,7,cue,black,-1,-1,-1,4,4,-1,0.35910088940363494,-1,1,none,none,-1,-1,-1,826039,19589,12:15:30.583463,hand
14,223,hand2,7,gabor,0,0.01743189821864678,3,3,-1,3,0.5458164408664743,-1,1,-1,congruent,hit,c,1,0.8617984362290372,828822,19589,12:15:30.583463,hand
14,224,hand2,7,cue,black,-1,-1,-1,4,4,-1,0.414674193942119,-1,1,none,none,-1,-1,-1,833555,19589,12:15:30.583463,hand
14,225,hand2,7,cue,white,-1,-1,-1,3,3,-1,0.28539815023123083,-1,1,none,none,-1,-1,-1,836404,19589,12:15:30.583463,hand
14,226,hand2,7,cue,white,-1,-1,-1,3,3,-1,0.20032155526132556,-1,1,none,none,-1,-1,-1,839122,19589,12:15:30.583463,hand
14,227,hand2,7,cue,white,-1,-1,-1,3,3,-1,0.5481718504370292,-1,1,none,none,-1,-1,-1,841655,19589,12:15:30.583463,hand
14,228,hand2,7,cue,black,-1,-1,-1,4,4,-1,0.5848031923596864,-1,1,none,none,-1,-1,-1,847471,19589,12:15:30.583463,hand
14,229,hand2,7,gabor,90,0.01743189821864678,4,4,-1,4,0.32866795329664455,-1,1,-1,congruent,CR,3,3,0.8664923597025336,850588,19589,12:15:30.583463,hand
14,230,hand2,7,cue,black,-1,-1,-1,4,4,-1,0.16930955857060326,-1,1,none,none,-1,-1,-1,855120,19589,12:15:30.583463,hand
14,231,hand2,7,gabor,0,0.01743189821864678,4,3,-1,4,0.44919741742069164,-1,0,-1,congruent,miss,q,1,0.7222386912317234,857822,19589,12:15:30.583463,hand
14,232,hand2,7,cue,black,-1,-1,-1,4,4,-1,0.47993562750889396,-1,1,none,none,-1,-1,-1,862337,19589,12:15:30.583463,hand
14,233,hand2,7,gabor,0,0.01743189821864678,4,3,-1,3,0.5117090811900198,-1,0,-1,incongruent,miss,c,1,0.6826747991135562,865355,19589,12:15:30.583463,hand
14,234,hand2,7,gabor,0,0.01743189821864678,4,3,-1,4,0.34147294888498436,-1,0,-1,congruent,miss,3,2,2.8223478218797027,870004,19589,12:15:30.583463,hand
14,235,hand2,7,cue,white,-1,-1,-1,3,3,-1,0.26834120645889925,-1,1,none,none,-1,-1,-1,876605,19589,12:15:30.583463,hand
14,236,hand2,7,gabor,90,0.01743189821864678,4,4,-1,3,0.5826175074435014,-1,1,-1,incongruent,CR,q,2,1.2096955784809325,882136,19589,12:15:30.583463,hand
14,237,hand2,7,cue,black,-1,-1,-1,4,4,-1,0.16856960515633546,-1,1,none,none,-1,-1,-1,887354,19589,12:15:30.583463,hand
14,238,hand2,7,cue,white,-1,-1,-1,3,3,-1,0.5203780943065794,-1,1,none,none,-1,-1,-1,889953,19589,12:15:30.583463,hand
14,239,hand2,7,cue,white,-1,-1,-1,3,3,-1,0.2941750652207702,-1,1,none,none,-1,-1,-1,893004,19589,12:15:30.583463,hand
14,240,hand2,7,cue,black,-1,-1,-1,4,4,-1,0.3971330357144325,-1,1,none,none,-1,-1,-1,895620,19589,12:15:30.583463,hand
14,241,hand2,7,cue,black,-1,-1,-1,4,4,-1,0.2829693981075252,-1,1,none,none,-1,-1,-1,898453,19589,12:15:30.583463,hand
14,242,hand2,7,gabor,90,0.01743189821864678,4,4,-1,3,0.3406565809773383,-1,1,-1,incongruent,CR,3,2,0.7806523877798099,901270,19589,12:15:30.583463,hand
14,243,hand2,7,cue,white,-1,-1,-1,3,3,-1,0.42444526533472526,-1,1,none,none,-1,-1,-1,905735,19589,12:15:30.583463,hand
14,244,hand2,7,gabor,0,0.01743189821864678,4,3,-1,3,0.42134068653285794,-1,0,-1,incongruent,miss,q,2,1.1423448420982822,908586,19589,12:15:30.583463,hand
14,245,hand2,7,cue,black,-1,-1,-1,4,4,-1,0.25024018726526265,-1,1,none,none,-1,-1,-1,913486,19589,12:15:30.583463,hand
14,246,hand2,7,cue,white,-1,-1,-1,3,3,-1,0.3039499765382061,-1,1,none,none,-1,-1,-1,916069,19589,12:15:30.583463,hand
14,247,hand2,7,cue,white,-1,-1,-1,3,3,-1,0.21379354570126452,-1,1,none,none,-1,-1,-1,918903,19589,12:15:30.583463,hand
14,248,hand2,7,gabor,90,0.01743189821864678,4,4,-1,3,0.4685525558925292,-1,1,-1,incongruent,CR,c,2,0.8344658550095119,921653,19589,12:15:30.583463,hand
14,249,hand2,7,gabor,90,0.01743189821864678,4,4,-1,4,0.3872168151820006,-1,1,-1,congruent,CR,q,3,0.8032929654891632,926302,19589,12:15:30.583463,hand
14,250,hand2,7,cue,black,-1,-1,-1,4,4,-1,0.38306086510419846,-1,1,none,none,-1,-1,-1,930735,19589,12:15:30.583463,hand
14,251,hand2,7,cue,black,-1,-1,-1,4,4,-1,0.4329833370320557,-1,1,none,none,-1,-1,-1,933451,19589,12:15:30.583463,hand
14,252,hand2,7,cue,white,-1,-1,-1,3,3,-1,0.4878093923007327,-1,1,none,none,-1,-1,-1,936419,19589,12:15:30.583463,hand
14,253,hand2,8,cue,white,-1,-1,-1,3,3,-1,0.34732422554498044,-1,1,none,none,-1,-1,-1,942468,19589,12:15:30.583463,hand
14,254,hand2,8,gabor,0,0.01743189821864678,4,3,-1,4,0.5571776249144023,-1,0,-1,congruent,miss,4,1,0.6991027632866462,945152,19589,12:15:30.583463,hand
14,255,hand2,8,cue,black,-1,-1,-1,4,4,-1,0.17692412847191008,-1,1,none,none,-1,-1,-1,949852,19589,12:15:30.583463,hand
14,256,hand2,8,cue,black,-1,-1,-1,4,4,-1,0.22780389353010833,-1,1,none,none,-1,-1,-1,952351,19589,12:15:30.583463,hand
14,257,hand2,8,cue,white,-1,-1,-1,3,3,-1,0.29060431960715505,-1,1,none,none,-1,-1,-1,954901,19589,12:15:30.583463,hand
14,258,hand2,8,gabor,90,0.01743189821864678,4,4,-1,3,0.41131387618133886,-1,1,-1,incongruent,CR,3,2,0.9623215107185388,957718,19589,12:15:30.583463,hand
14,259,hand2,8,gabor,0,0.01743189821864678,4,3,-1,3,0.4292444027341844,-1,0,-1,incongruent,miss,c,1,0.722224867503428,962519,19589,12:15:30.583463,hand
14,260,hand2,8,cue,white,-1,-1,-1,3,3,-1,0.1790875418264477,-1,1,none,none,-1,-1,-1,967119,19589,12:15:30.583463,hand
14,261,hand2,8,gabor,0,0.01743189821864678,4,3,-1,3,0.4246998523167349,-1,0,-1,incongruent,miss,3,1,0.6636091909349489,969818,19589,12:15:30.583463,hand
14,262,hand2,8,cue,white,-1,-1,-1,3,3,-1,0.26553614175190887,-1,1,none,none,-1,-1,-1,974351,19589,12:15:30.583463,hand
14,263,hand2,8,cue,black,-1,-1,-1,4,4,-1,0.2703759823480141,-1,1,none,none,-1,-1,-1,976950,19589,12:15:30.583463,hand
14,264,hand2,8,cue,white,-1,-1,-1,3,3,-1,0.2303516833080721,-1,1,none,none,-1,-1,-1,979751,19589,12:15:30.583463,hand
14,265,hand2,8,cue,white,-1,-1,-1,3,3,-1,0.37909652724920306,-1,1,none,none,-1,-1,-1,982417,19589,12:15:30.583463,hand
14,266,hand2,8,cue,white,-1,-1,-1,3,3,-1,0.21096428947203094,-1,1,none,none,-1,-1,-1,985134,19589,12:15:30.583463,hand
14,267,hand2,8,gabor,90,0.01743189821864678,4,4,-1,3,0.3237551541378707,-1,1,-1,incongruent,CR,c,2,0.6537678489276004,987766,19589,12:15:30.583463,hand
14,268,hand2,8,cue,black,-1,-1,-1,4,4,-1,0.35456785875794594,-1,1,none,none,-1,-1,-1,992083,19589,12:15:30.583463,hand
14,269,hand2,8,cue,black,-1,-1,-1,4,4,-1,0.24441233414381713,-1,1,none,none,-1,-1,-1,994967,19589,12:15:30.583463,hand
14,270,hand2,8,cue,black,-1,-1,-1,4,4,-1,0.30422990702027164,-1,1,none,none,-1,-1,-1,997650,19589,12:15:30.583463,hand
14,271,hand2,8,cue,black,-1,-1,-1,4,4,-1,0.21028654283145443,-1,1,none,none,-1,-1,-1,1000283,19589,12:15:30.583463,hand
14,272,hand2,8,gabor,90,0.01743189821864678,4,4,-1,3,0.36776260666283633,-1,1,-1,incongruent,CR,3,2,0.6778487822448369,1003017,19589,12:15:30.583463,hand
14,273,hand2,8,cue,white,-1,-1,-1,4,3,-1,0.38163740516392863,-1,0,none,none,-1,-1,-1,1007399,19589,12:15:30.583463,hand
14,274,hand2,8,gabor,0,0.01743189821864678,4,3,-1,4,0.3454952695974498,-1,0,-1,congruent,miss,c,2,1.58729299928018,1010215,19589,12:15:30.583463,hand
14,275,hand2,8,cue,black,-1,-1,-1,4,4,-1,0.20423674208541343,-1,1,none,none,-1,-1,-1,1015383,19589,12:15:30.583463,hand
14,276,hand2,8,cue,white,-1,-1,-1,3,3,-1,0.20515678794981795,-1,1,none,none,-1,-1,-1,1018117,19589,12:15:30.583463,hand
14,277,hand2,8,gabor,90,0.01743189821864678,4,4,-1,4,0.3358056045999547,-1,1,-1,congruent,CR,c,3,1.162778999299917,1020649,19589,12:15:30.583463,hand
14,278,hand2,8,cue,black,-1,-1,-1,4,4,-1,0.21056071342718496,-1,1,none,none,-1,-1,-1,1025382,19589,12:15:30.583463,hand
14,279,hand2,8,cue,white,-1,-1,-1,3,3,-1,0.25944525381510175,-1,1,none,none,-1,-1,-1,1028116,19589,12:15:30.583463,hand
14,280,hand2,8,gabor,90,0.01743189821864678,4,4,-1,4,0.29426991135187563,-1,1,-1,congruent,CR,q,3,0.98325217013371,1030799,19589,12:15:30.583463,hand
14,281,hand2,8,cue,black,-1,-1,-1,4,4,-1,0.18281111642681935,-1,1,none,none,-1,-1,-1,1039181,19589,12:15:30.583463,hand
14,282,hand2,8,cue,white,-1,-1,-1,3,3,-1,0.28877613164513605,-1,1,none,none,-1,-1,-1,1041698,19589,12:15:30.583463,hand
14,283,hand2,8,cue,black,-1,-1,-1,4,4,-1,0.2705572267759635,-1,1,none,none,-1,-1,-1,1044414,19589,12:15:30.583463,hand
14,284,hand2,8,gabor,90,0.01743189821864678,4,4,-1,4,0.24139684158490127,-1,1,-1,congruent,CR,4,2,1.7923061740602861,1047215,19589,12:15:30.583463,hand
14,285,hand2,8,cue,white,-1,-1,-1,3,3,-1,0.16100073035340756,-1,1,none,none,-1,-1,-1,1052682,19589,12:15:30.583463,hand
14,286,hand2,8,gabor,0,0.01743189821864678,4,3,-1,3,0.36676883425298,-1,0,-1,incongruent,miss,q,2,1.4698588981409557,1055181,19589,12:15:30.583463,hand
14,287,hand2,8,cue,black,-1,-1,-1,4,4,-1,0.22666727593423275,-1,1,none,none,-1,-1,-1,1060247,19589,12:15:30.583463,hand
14,288,hand2,8,gabor,0,0.01743189821864678,3,3,-1,4,0.43340342475130456,-1,1,-1,incongruent,hit,4,2,1.2144536286896255,1062998,19589,12:15:30.583463,hand
14,289,hand2,9,gabor,90,0.01743189821864678,4,4,-1,4,0.3957552708716321,-1,1,-1,congruent,CR,3,2,0.78471886762145,1074947,19589,12:15:30.583463,hand
14,290,hand2,9,cue,white,-1,-1,-1,3,3,-1,0.1913941152397456,-1,1,none,none,-1,-1,-1,1082213,19589,12:15:30.583463,hand
14,291,hand2,9,cue,black,-1,-1,-1,4,4,-1,0.21316111016767536,-1,1,none,none,-1,-1,-1,1084830,19589,12:15:30.583463,hand
14,292,hand2,9,cue,white,-1,-1,-1,3,3,-1,0.25813161571022647,-1,1,none,none,-1,-1,-1,1087381,19589,12:15:30.583463,hand
14,293,hand2,9,cue,white,-1,-1,-1,3,3,-1,0.2339769558466287,-1,1,none,none,-1,-1,-1,1090164,19589,12:15:30.583463,hand
14,294,hand2,9,cue,white,-1,-1,-1,3,3,-1,0.23679238834847638,-1,1,none,none,-1,-1,-1,1092931,19589,12:15:30.583463,hand
14,295,hand2,9,cue,black,-1,-1,-1,4,4,-1,0.20860427199295373,-1,1,none,none,-1,-1,-1,1095596,19589,12:15:30.583463,hand
14,296,hand2,9,cue,black,-1,-1,-1,4,4,-1,0.3054506189573658,-1,1,none,none,-1,-1,-1,1098229,19589,12:15:30.583463,hand
14,297,hand2,9,cue,black,-1,-1,-1,4,4,-1,0.30025635334641265,-1,1,none,none,-1,-1,-1,1100963,19589,12:15:30.583463,hand
14,298,hand2,9,gabor,0,0.01743189821864678,3,3,-1,3,0.401204891449197,-1,1,-1,congruent,hit,c,2,1.565189242989618,1103596,19589,12:15:30.583463,hand
14,299,hand2,9,cue,black,-1,-1,-1,4,4,-1,0.16980298884391232,-1,1,none,none,-1,-1,-1,1108997,19589,12:15:30.583463,hand
14,300,hand2,9,cue,white,-1,-1,-1,3,3,-1,0.33370900592763064,-1,1,none,none,-1,-1,-1,1111496,19589,12:15:30.583463,hand
14,301,hand2,9,gabor,0,0.01743189821864678,3,3,-1,4,0.3506027529192579,-1,1,-1,incongruent,hit,q,2,1.4644234852848967,1114162,19589,12:15:30.583463,hand
14,302,hand2,9,cue,white,-1,-1,-1,3,3,-1,0.17223404492233385,-1,1,none,none,-1,-1,-1,1119329,19589,12:15:30.583463,hand
14,303,hand2,9,gabor,0,0.01743189821864678,3,3,-1,4,0.42516448315745947,-1,1,-1,incongruent,hit,c,1,1.223133393594253,1121929,19589,12:15:30.583463,hand
14,304,hand2,9,gabor,90,0.01743189821864678,4,4,-1,4,0.4107835826334849,-1,1,-1,congruent,CR,c,2,1.2597720313742684,1126812,19589,12:15:30.583463,hand
14,305,hand2,9,cue,black,-1,-1,-1,4,4,-1,0.22543350825435482,-1,1,none,none,-1,-1,-1,1131828,19589,12:15:30.583463,hand
14,306,hand2,9,cue,white,-1,-1,-1,3,3,-1,0.23337677567633364,-1,1,none,none,-1,-1,-1,1134478,19589,12:15:30.583463,hand
14,307,hand2,9,cue,white,-1,-1,-1,3,3,-1,0.25119594442548987,-1,1,none,none,-1,-1,-1,1137045,19589,12:15:30.583463,hand
14,308,hand2,9,cue,black,-1,-1,-1,4,4,-1,0.23127057719466393,-1,1,none,none,-1,-1,-1,1139728,19589,12:15:30.583463,hand
14,309,hand2,9,cue,black,-1,-1,-1,4,4,-1,0.24290900377764046,-1,1,none,none,-1,-1,-1,1142496,19589,12:15:30.583463,hand
14,310,hand2,9,gabor,0,0.01743189821864678,3,3,-1,4,0.3747746924409512,-1,1,-1,incongruent,hit,3,2,1.3707032206984877,1145262,19589,12:15:30.583463,hand
14,311,hand2,9,cue,black,-1,-1,-1,4,4,-1,0.37457194443777553,-1,1,none,none,-1,-1,-1,1150344,19589,12:15:30.583463,hand
14,312,hand2,9,gabor,0,0.01743189821864678,3,3,-1,3,0.3971583792144884,-1,1,-1,congruent,hit,3,1,0.8642805633016906,1153246,19589,12:15:30.583463,hand
14,313,hand2,9,cue,black,-1,-1,-1,4,4,-1,0.21322331694227614,-1,1,none,none,-1,-1,-1,1157945,19589,12:15:30.583463,hand
14,314,hand2,9,cue,black,-1,-1,-1,4,4,-1,0.233970043982481,-1,1,none,none,-1,-1,-1,1160595,19589,12:15:30.583463,hand
14,315,hand2,9,cue,white,-1,-1,-1,3,3,-1,0.3067631050853379,-1,1,none,none,-1,-1,-1,1163261,19589,12:15:30.583463,hand
14,316,hand2,9,cue,black,-1,-1,-1,4,4,-1,0.23064274956959707,-1,1,none,none,-1,-1,-1,1166095,19589,12:15:30.583463,hand
14,317,hand2,9,gabor,90,0.01743189821864678,4,4,-1,3,0.3814446409633092,-1,1,-1,incongruent,CR,c,2,1.232280477286622,1168761,19589,12:15:30.583463,hand
14,318,hand2,9,gabor,90,0.01743189821864678,4,4,-1,4,0.4472190884171141,-1,1,-1,congruent,CR,4,3,0.8882021397594144,1173828,19589,12:15:30.583463,hand
14,319,hand2,9,gabor,0,0.01743189821864678,4,3,-1,3,0.35293358697344956,-1,0,-1,incongruent,miss,q,2,1.3008331099781572,1178510,19589,12:15:30.583463,hand
14,320,hand2,9,gabor,90,0.01743189821864678,4,4,-1,3,0.413532200453119,-1,1,-1,incongruent,CR,q,3,1.6534833105370126,1183611,19589,12:15:30.583463,hand
14,321,hand2,9,cue,white,-1,-1,-1,3,3,-1,0.22924885704651388,-1,1,none,none,-1,-1,-1,1188927,19589,12:15:30.583463,hand
14,322,hand2,9,cue,white,-1,-1,-1,3,3,-1,0.30123092613666813,-1,1,none,none,-1,-1,-1,1191494,19589,12:15:30.583463,hand
14,323,hand2,9,cue,white,-1,-1,-1,3,3,-1,0.371763039806865,-1,1,none,none,-1,-1,-1,1197993,19589,12:15:30.583463,hand
14,324,hand2,9,gabor,90,0.01743189821864678,4,4,-1,3,0.29959089446492726,-1,1,-1,incongruent,CR,c,2,1.1435736178773368,1200693,19589,12:15:30.583463,hand
14,325,hand2,10,gabor,0,0.01743189821864678,4,3,-1,3,0.2737274682840507,-1,0,-1,incongruent,miss,4,2,0.7196897494759469,1215342,19589,12:15:30.583463,hand
14,326,hand2,10,gabor,0,0.01743189821864678,4,3,-1,3,0.36846915273599734,-1,0,-1,incongruent,miss,4,1,0.8854473780611443,1219793,19589,12:15:30.583463,hand
14,327,hand2,10,cue,black,-1,-1,-1,4,4,-1,0.3814231373871735,-1,1,none,none,-1,-1,-1,1224494,19589,12:15:30.583463,hand
14,328,hand2,10,gabor,90,0.01743189821864678,4,4,-1,4,0.32118086888294783,-1,1,-1,congruent,CR,3,2,0.7580617290868759,1227309,19589,12:15:30.583463,hand
14,329,hand2,10,cue,black,-1,-1,-1,4,4,-1,0.4209102310169328,-1,1,none,none,-1,-1,-1,1231625,19589,12:15:30.583463,hand
14,330,hand2,10,cue,white,-1,-1,-1,3,3,-1,0.22465400362034416,-1,1,none,none,-1,-1,-1,1234375,19589,12:15:30.583463,hand
14,331,hand2,10,gabor,90,0.01743189821864678,4,4,-1,4,0.29248281057880376,-1,1,-1,congruent,CR,q,2,1.4243953463192156,1237126,19589,12:15:30.583463,hand
14,332,hand2,10,gabor,0,0.01743189821864678,4,3,-1,4,0.32723258959049417,-1,0,-1,congruent,miss,q,1,1.1292445563312867,1242075,19589,12:15:30.583463,hand
14,333,hand2,10,cue,black,-1,-1,-1,4,4,-1,0.23510589359284495,-1,1,none,none,-1,-1,-1,1246758,19589,12:15:30.583463,hand
14,334,hand2,10,cue,black,-1,-1,-1,4,4,-1,0.22098188400468644,-1,1,none,none,-1,-1,-1,1249425,19589,12:15:30.583463,hand
14,335,hand2,10,cue,black,-1,-1,-1,4,4,-1,0.28365943250537384,-1,1,none,none,-1,-1,-1,1251974,19589,12:15:30.583463,hand
14,336,hand2,10,cue,black,-1,-1,-1,4,4,-1,0.24449297255432612,-1,1,none,none,-1,-1,-1,1254792,19589,12:15:30.583463,hand
14,337,hand2,10,cue,black,-1,-1,-1,4,4,-1,0.3043431847872853,-1,1,none,none,-1,-1,-1,1257559,19589,12:15:30.583463,hand
14,338,hand2,10,cue,black,-1,-1,-1,4,4,-1,0.26526389111859316,-1,1,none,none,-1,-1,-1,1260291,19589,12:15:30.583463,hand
14,339,hand2,10,cue,white,-1,-1,-1,3,3,-1,0.23607470649494644,-1,1,none,none,-1,-1,-1,1262991,19589,12:15:30.583463,hand
14,340,hand2,10,cue,black,-1,-1,-1,4,4,-1,0.2597628155554048,-1,1,none,none,-1,-1,-1,1265657,19589,12:15:30.583463,hand
14,341,hand2,10,cue,white,-1,-1,-1,3,3,-1,0.2228035440966778,-1,1,none,none,-1,-1,-1,1268340,19589,12:15:30.583463,hand
14,342,hand2,10,cue,white,-1,-1,-1,3,3,-1,0.25947174929297034,-1,1,none,none,-1,-1,-1,1270890,19589,12:15:30.583463,hand
14,343,hand2,10,cue,white,-1,-1,-1,3,3,-1,0.24341011389969935,-1,1,none,none,-1,-1,-1,1273573,19589,12:15:30.583463,hand
14,344,hand2,10,cue,white,-1,-1,-1,3,3,-1,0.33124646246960765,-1,1,none,none,-1,-1,-1,1276342,19589,12:15:30.583463,hand
14,345,hand2,10,cue,white,-1,-1,-1,3,3,-1,0.28913554855989787,-1,1,none,none,-1,-1,-1,1279208,19589,12:15:30.583463,hand
14,346,hand2,10,cue,white,-1,-1,-1,3,3,-1,0.2977312191223973,-1,1,none,none,-1,-1,-1,1285690,19589,12:15:30.583463,hand
14,347,hand2,10,cue,black,-1,-1,-1,3,4,-1,0.4105846745551389,-1,0,none,none,-1,-1,-1,1288524,19589,12:15:30.583463,hand
14,348,hand2,10,cue,white,-1,-1,-1,3,3,-1,0.35141336093965947,-1,1,none,none,-1,-1,-1,1291356,19589,12:15:30.583463,hand
14,349,hand2,10,cue,black,-1,-1,-1,4,4,-1,0.4482405082835612,-1,1,none,none,-1,-1,-1,1294040,19589,12:15:30.583463,hand
14,350,hand2,10,gabor,0,0.01743189821864678,4,3,-1,4,0.3371603298955961,-1,0,-1,congruent,miss,4,1,0.7659884848344518,1297024,19589,12:15:30.583463,hand
14,351,hand2,10,cue,black,-1,-1,-1,4,4,-1,0.2809941410432657,-1,1,none,none,-1,-1,-1,1301574,19589,12:15:30.583463,hand
14,352,hand2,10,cue,white,-1,-1,-1,3,3,-1,0.25275687365592603,-1,1,none,none,-1,-1,-1,1304189,19589,12:15:30.583463,hand
14,353,hand2,10,cue,white,-1,-1,-1,3,3,-1,0.24152701501952833,-1,1,none,none,-1,-1,-1,1306973,19589,12:15:30.583463,hand
14,354,hand2,10,gabor,90,0.01743189821864678,4,4,-1,3,0.32436224617140397,-1,1,-1,incongruent,CR,3,2,0.8713083927686966,1309539,19589,12:15:30.583463,hand
14,355,hand2,10,cue,white,-1,-1,-1,3,3,-1,0.20516600376777205,-1,1,none,none,-1,-1,-1,1314174,19589,12:15:30.583463,hand
14,356,hand2,10,gabor,0,0.01743189821864678,4,3,-1,3,0.46095334568781254,-1,0,-1,incongruent,miss,3,1,0.8038681861507939,1316806,19589,12:15:30.583463,hand
14,357,hand2,10,gabor,90,0.01743189821864678,4,4,-1,3,0.3227694455681558,-1,1,-1,incongruent,CR,q,2,1.3866538822785515,1321506,19589,12:15:30.583463,hand
14,358,hand2,10,gabor,90,0.01743189821864678,4,4,-1,3,0.4013957356874016,-1,1,-1,incongruent,CR,4,3,0.7593162323582874,1326455,19589,12:15:30.583463,hand
14,359,hand2,10,gabor,90,0.01743189821864678,4,4,-1,4,0.4142057231765648,-1,1,-1,congruent,CR,c,3,1.1760271221528455,1331057,19589,12:15:30.583463,hand
14,360,hand2,10,gabor,0,0.01743189821864678,3,3,-1,4,0.4539067005916877,-1,1,-1,incongruent,hit,3,2,0.9298096395923494,1335989,19589,12:15:30.583463,hand
14,361,hand2,11,gabor,90,0.01743189821864678,4,4,-1,3,0.349657363553888,-1,1,-1,incongruent,CR,4,3,1.236482122464622,1357822,19589,12:15:30.583463,hand
14,362,hand2,11,gabor,0,0.01743189821864678,4,3,-1,3,0.39023806762634194,-1,0,-1,incongruent,miss,c,3,1.4171405773249717,1362906,19589,12:15:30.583463,hand
14,363,hand2,11,cue,white,-1,-1,-1,3,3,-1,0.2239605132899669,-1,1,none,none,-1,-1,-1,1367954,19589,12:15:30.583463,hand
14,364,hand2,11,gabor,90,0.01743189821864678,4,4,-1,4,0.3567320400979952,-1,1,-1,congruent,CR,q,3,1.1536449713503316,1373337,19589,12:15:30.583463,hand
14,365,hand2,11,cue,white,-1,-1,-1,3,3,-1,0.49247758828187216,-1,1,none,none,-1,-1,-1,1378288,19589,12:15:30.583463,hand
14,366,hand2,11,cue,black,-1,-1,-1,4,4,-1,0.26425744695734465,-1,1,none,none,-1,-1,-1,1381204,19589,12:15:30.583463,hand
14,367,hand2,11,cue,white,-1,-1,-1,3,3,-1,0.1882112019811757,-1,1,none,none,-1,-1,-1,1383804,19589,12:15:30.583463,hand
14,368,hand2,11,gabor,90,0.01743189821864678,4,4,-1,3,0.33081562296229094,-1,1,-1,incongruent,CR,c,2,1.817756040392851,1389153,19589,12:15:30.583463,hand
14,369,hand2,11,gabor,90,0.01743189821864678,4,4,-1,4,0.3625257178937318,-1,1,-1,congruent,CR,3,3,1.608431782592561,1394653,19589,12:15:30.583463,hand
14,370,hand2,11,cue,black,-1,-1,-1,4,4,-1,0.2102362398227342,-1,1,none,none,-1,-1,-1,1400054,19589,12:15:30.583463,hand
14,371,hand2,11,gabor,0,0.01743189821864678,4,3,-1,3,0.446082470822148,-1,0,-1,incongruent,miss,c,1,1.0360004423591818,1402787,19589,12:15:30.583463,hand
14,372,hand2,11,cue,white,-1,-1,-1,3,3,-1,0.38180021795415087,-1,1,none,none,-1,-1,-1,1407519,19589,12:15:30.583463,hand
14,373,hand2,11,gabor,90,0.01743189821864678,4,4,-1,3,0.3406058939772265,-1,1,-1,incongruent,CR,4,2,0.6635381523356045,1410437,19589,12:15:30.583463,hand
14,374,hand2,11,gabor,0,0.01743189821864678,4,3,-1,3,0.49425739319758577,-1,0,-1,incongruent,miss,c,1,1.0283397933662854,1414770,19589,12:15:30.583463,hand
14,375,hand2,11,gabor,0,0.01743189821864678,3,3,-1,4,0.38216577874845825,-1,1,-1,incongruent,hit,3,2,0.7361534249430406,1419720,19589,12:15:30.583463,hand
14,376,hand2,11,gabor,0,0.01743189821864678,3,3,-1,4,0.48965793186289375,-1,1,-1,incongruent,hit,q,1,1.5116407305376924,1426902,19589,12:15:30.583463,hand
14,377,hand2,11,cue,white,-1,-1,-1,3,3,-1,0.226455312113103,-1,1,none,none,-1,-1,-1,1432337,19589,12:15:30.583463,hand
14,378,hand2,11,cue,white,-1,-1,-1,3,3,-1,0.19035541571429349,-1,1,none,none,-1,-1,-1,1435087,19589,12:15:30.583463,hand
14,379,hand2,11,cue,black,-1,-1,-1,4,4,-1,0.3261293793384539,-1,1,none,none,-1,-1,-1,1437803,19589,12:15:30.583463,hand
14,380,hand2,11,cue,white,-1,-1,-1,3,3,-1,0.1739869703687873,-1,1,none,none,-1,-1,-1,1440452,19589,12:15:30.583463,hand
14,381,hand2,11,cue,white,-1,-1,-1,3,3,-1,0.19776877358253842,-1,1,none,none,-1,-1,-1,1443153,19589,12:15:30.583463,hand
14,382,hand2,11,cue,black,-1,-1,-1,4,4,-1,0.26871329512414377,-1,1,none,none,-1,-1,-1,1445886,19589,12:15:30.583463,hand
14,383,hand2,11,cue,white,-1,-1,-1,3,3,-1,0.22839216993361333,-1,1,none,none,-1,-1,-1,1448686,19589,12:15:30.583463,hand
14,384,hand2,11,cue,black,-1,-1,-1,4,4,-1,0.19729838285365986,-1,1,none,none,-1,-1,-1,1451352,19589,12:15:30.583463,hand
14,385,hand2,11,cue,white,-1,-1,-1,3,3,-1,0.21221994472125516,-1,1,none,none,-1,-1,-1,1454086,19589,12:15:30.583463,hand
14,386,hand2,11,gabor,0,0.01743189821864678,4,3,-1,4,0.5968060277591576,-1,0,-1,congruent,miss,c,1,2.005901579667807,1456635,19589,12:15:30.583463,hand
14,387,hand2,11,gabor,90,0.01743189821864678,4,4,-1,4,0.3696533853926667,-1,1,-1,congruent,CR,c,2,1.9894613277383542,1462685,19589,12:15:30.583463,hand
14,388,hand2,11,cue,black,-1,-1,-1,4,4,-1,0.25725304102797963,-1,1,none,none,-1,-1,-1,1468284,19589,12:15:30.583463,hand
14,389,hand2,11,cue,black,-1,-1,-1,4,4,-1,0.22035559235064284,-1,1,none,none,-1,-1,-1,1471069,19589,12:15:30.583463,hand
14,390,hand2,11,cue,white,-1,-1,-1,3,3,-1,0.2660986906630569,-1,1,none,none,-1,-1,-1,1473717,19589,12:15:30.583463,hand
14,391,hand2,11,cue,black,-1,-1,-1,4,4,-1,0.19994332271653548,-1,1,none,none,-1,-1,-1,1476417,19589,12:15:30.583463,hand
14,392,hand2,11,cue,black,-1,-1,-1,4,4,-1,0.31967331459964043,-1,1,none,none,-1,-1,-1,1478950,19589,12:15:30.583463,hand
14,393,hand2,11,cue,black,-1,-1,-1,4,4,-1,0.3406350774021121,-1,1,none,none,-1,-1,-1,1481801,19589,12:15:30.583463,hand
14,394,hand2,11,cue,black,-1,-1,-1,4,4,-1,0.28245984015211434,-1,1,none,none,-1,-1,-1,1484566,19589,12:15:30.583463,hand
14,395,hand2,11,cue,black,-1,-1,-1,4,4,-1,0.2273457905603209,-1,1,none,none,-1,-1,-1,1487184,19589,12:15:30.583463,hand
14,396,hand2,11,cue,white,-1,-1,-1,3,3,-1,0.21516939058074058,-1,1,none,none,-1,-1,-1,1489935,19589,12:15:30.583463,hand
