start	accuracy_gabor	delta	orientation	pressed_gabor	expected_gabor	rt_gabor	trial	participant	response condition	date	expName	
0.025	1	0.025	0	n	n	0.8813043857262528	0	15	1	2021_Jun_21_1426	Motor	
0.0165	1	0.0165	0	n	n	0.7290610279796965	1	15	1	2021_Jun_21_1426	Motor	
0.0165	0	0.01485	0	x	n	0.9178135004276555	2	15	1	2021_Jun_21_1426	Motor	
0.025	1	0.023350000000000003	90	x	x	0.7516380276629206	3	15	1	2021_Jun_21_1426	Motor	
0.0165	1	0.0165	0	n	n	0.8114852205999341	4	15	1	2021_Jun_21_1426	Motor	
0.025	1	0.021700000000000004	90	x	x	0.6543263398834824	5	15	1	2021_Jun_21_1426	Motor	
0.0165	0	0.0165	90	n	x	1.2540485577337677	6	15	1	2021_Jun_21_1426	Motor	
0.025	1	0.020050000000000005	90	x	x	0.8939032692978799	7	15	1	2021_Jun_21_1426	Motor	
0.0165	1	0.01815	0	n	n	0.7407129793082277	8	15	1	2021_Jun_21_1426	Motor	
0.025	1	0.018400000000000007	90	x	x	0.745444952555772	9	15	1	2021_Jun_21_1426	Motor	
0.0165	1	0.01815	90	x	x	1.321343338200677	10	15	1	2021_Jun_21_1426	Motor	
0.025	1	0.016750000000000008	0	n	n	0.7271710034456191	11	15	1	2021_Jun_21_1426	Motor	
0.0165	0	0.01815	0	x	n	0.7851462196249486	12	15	1	2021_Jun_21_1426	Motor	
0.025	1	0.015100000000000008	0	n	n	0.791826584681985	13	15	1	2021_Jun_21_1426	Motor	
0.0165	1	0.019799999999999998	90	x	x	0.9905402774529648	14	15	1	2021_Jun_21_1426	Motor	
0.025	1	0.013450000000000007	90	x	x	0.8534539795164164	15	15	1	2021_Jun_21_1426	Motor	
0.025	1	0.011800000000000007	90	x	x	1.1889559899227606	16	15	1	2021_Jun_21_1426	Motor	
0.0165	1	0.019799999999999998	0	n	n	0.880045265357694	17	15	1	2021_Jun_21_1426	Motor	
0.025	1	0.010150000000000006	90	x	x	0.6949737712056958	18	15	1	2021_Jun_21_1426	Motor	
0.0165	1	0.019799999999999998	0	n	n	0.7815804398978798	19	15	1	2021_Jun_21_1426	Motor	
0.025	1	0.008500000000000006	90	x	x	0.7884359067793412	20	15	1	2021_Jun_21_1426	Motor	
0.0165	0	0.01815	0	x	n	0.7392150139057776	21	15	1	2021_Jun_21_1426	Motor	
0.025	1	0.006850000000000005	90	x	x	1.3121201567173557	22	15	1	2021_Jun_21_1426	Motor	
0.0165	1	0.019799999999999998	90	x	x	0.6220384847692912	23	15	1	2021_Jun_21_1426	Motor	
0.025	0	0.005200000000000005	0	x	n	1.018657176353372	24	15	1	2021_Jun_21_1426	Motor	
0.0165	1	0.019799999999999998	90	x	x	0.7484608511113038	25	15	1	2021_Jun_21_1426	Motor	
0.025	1	0.006850000000000005	90	x	x	1.0003843792273983	26	15	1	2021_Jun_21_1426	Motor	
0.0165	1	0.019799999999999998	90	x	x	1.0780443430012383	27	15	1	2021_Jun_21_1426	Motor	
0.0165	1	0.01815	0	n	n	1.0819960379376425	28	15	1	2021_Jun_21_1426	Motor	
0.025	1	0.006850000000000005	90	x	x	0.6567236221198982	29	15	1	2021_Jun_21_1426	Motor	
0.0165	1	0.01815	90	x	x	0.7204910223827028	30	15	1	2021_Jun_21_1426	Motor	
0.025	1	0.006850000000000005	90	x	x	0.7862628777602367	31	15	1	2021_Jun_21_1426	Motor	
0.0165	1	0.01815	0	n	n	0.7291577947762562	32	15	1	2021_Jun_21_1426	Motor	
0.025	0	0.005200000000000005	0	x	n	0.7940468451142806	33	15	1	2021_Jun_21_1426	Motor	
0.025	1	0.006850000000000005	90	x	x	1.044632149845711	34	15	1	2021_Jun_21_1426	Motor	
0.0165	1	0.0165	0	n	n	0.8215040402046725	35	15	1	2021_Jun_21_1426	Motor	
0.025	1	0.006850000000000005	90	x	x	0.8743318002962042	36	15	1	2021_Jun_21_1426	Motor	
0.0165	1	0.0165	0	n	n	1.0581372621691116	37	15	1	2021_Jun_21_1426	Motor	
0.0165	1	0.0165	0	n	n	0.7460040496134752	38	15	1	2021_Jun_21_1426	Motor	
0.025	0	0.006850000000000005	0	x	n	0.8388740645405051	39	15	1	2021_Jun_21_1426	Motor	
0.025	1	0.008500000000000006	0	n	n	0.73858372574432	40	15	1	2021_Jun_21_1426	Motor	
0.0165	1	0.01485	90	x	x	0.7352951905741065	41	15	1	2021_Jun_21_1426	Motor	
0.025	1	0.008500000000000006	0	n	n	0.7602291529947252	42	15	1	2021_Jun_21_1426	Motor	
0.0165	1	0.01485	90	x	x	0.5640893802665232	43	15	1	2021_Jun_21_1426	Motor	
0.0165	1	0.01485	90	x	x	0.699788687423279	44	15	1	2021_Jun_21_1426	Motor	
0.025	1	0.008500000000000006	0	n	n	0.6976256422803999	45	15	1	2021_Jun_21_1426	Motor	
0.0165	1	0.0132	0	n	n	1.140459696052858	46	15	1	2021_Jun_21_1426	Motor	
0.025	1	0.006850000000000005	90	x	x	0.7281955027247022	47	15	1	2021_Jun_21_1426	Motor	
0.025	0	0.006850000000000005	90	n	x	0.8611761236370512	48	15	1	2021_Jun_21_1426	Motor	
0.0165	1	0.0132	90	x	x	0.7008857618020556	49	15	1	2021_Jun_21_1426	Motor	
0.0165	1	0.0132	0	n	n	0.775660769395472	50	15	1	2021_Jun_21_1426	Motor	
0.025	1	0.008500000000000006	90	x	x	1.091541775416772	51	15	1	2021_Jun_21_1426	Motor	
0.0165	1	0.01155	90	x	x	0.882344628807914	52	15	1	2021_Jun_21_1426	Motor	
0.025	1	0.008500000000000006	90	x	x	0.8561749697310006	53	15	1	2021_Jun_21_1426	Motor	
0.025	1	0.008500000000000006	90	x	x	0.7129689397788752	54	15	1	2021_Jun_21_1426	Motor	
0.0165	1	0.01155	0	n	n	0.7747161411243724	55	15	1	2021_Jun_21_1426	Motor	
0.0165	1	0.01155	0	n	n	0.9186590579283802	56	15	1	2021_Jun_21_1426	Motor	
0.025	1	0.006850000000000005	90	x	x	0.6273245631382451	57	15	1	2021_Jun_21_1426	Motor	
0.0165	1	0.009899999999999999	90	x	x	0.7810551344191481	58	15	1	2021_Jun_21_1426	Motor	
0.025	1	0.006850000000000005	90	x	x	0.8521149881398742	59	15	1	2021_Jun_21_1426	Motor	
0.025	1	0.006850000000000005	90	x	x	0.8038544673436263	60	15	1	2021_Jun_21_1426	Motor	
0.0165	1	0.009899999999999999	0	n	n	1.1415621463656862	61	15	1	2021_Jun_21_1426	Motor	
0.0165	1	0.009899999999999999	0	n	n	1.4514893063096679	62	15	1	2021_Jun_21_1426	Motor	
0.025	1	0.005200000000000005	90	x	x	0.6991477993797162	63	15	1	2021_Jun_21_1426	Motor	
0.025	1	0.005200000000000005	90	x	x	1.24916874632072	64	15	1	2021_Jun_21_1426	Motor	
0.0165	1	0.008249999999999999	90	x	x	0.5899710429202969	65	15	1	2021_Jun_21_1426	Motor	
0.0165	0	0.008249999999999999	0	x	n	0.883590309342253	66	15	1	2021_Jun_21_1426	Motor	
0.025	1	0.005200000000000005	90	x	x	0.8875612040410488	67	15	1	2021_Jun_21_1426	Motor	
0.025	1	0.003550000000000005	90	x	x	0.8371844855173549	68	15	1	2021_Jun_21_1426	Motor	
0.0165	1	0.009899999999999999	90	x	x	0.9421411343755608	69	15	1	2021_Jun_21_1426	Motor	
0.0165	1	0.009899999999999999	0	n	n	0.9629982194128388	70	15	1	2021_Jun_21_1426	Motor	
0.025	1	0.003550000000000005	90	x	x	0.830676150324507	71	15	1	2021_Jun_21_1426	Motor	
0.0165	1	0.009899999999999999	0	n	n	0.9755191519543587	72	15	1	2021_Jun_21_1426	Motor	
0.025	1	0.003550000000000005	90	x	x	0.6583552178599348	73	15	1	2021_Jun_21_1426	Motor	
0.025	1	0.001900000000000005	0	n	n	0.7552375989707798	74	15	1	2021_Jun_21_1426	Motor	
0.0165	0	0.008249999999999999	0	x	n	1.1629341690095316	75	15	1	2021_Jun_21_1426	Motor	
0.025	1	0.001900000000000005	0	n	n	1.0097166153573198	76	15	1	2021_Jun_21_1426	Motor	
0.0165	1	0.009899999999999999	0	n	n	0.740577812985066	77	15	1	2021_Jun_21_1426	Motor	
0.0165	1	0.009899999999999999	0	n	n	1.1053183723670372	78	15	1	2021_Jun_21_1426	Motor	
0.025	1	0.001900000000000005	0	n	n	0.7763358330139454	79	15	1	2021_Jun_21_1426	Motor	
0.0165	1	0.009899999999999999	90	x	x	0.6849000402817182	80	15	1	2021_Jun_21_1426	Motor	
0.025	0	0.0005	90	n	x	0.6276267673856637	81	15	1	2021_Jun_21_1426	Motor	
0.025	0	0.00215	90	n	x	1.033471328419182	82	15	1	2021_Jun_21_1426	Motor	
0.0165	1	0.008249999999999999	90	x	x	0.9172313636554463	83	15	1	2021_Jun_21_1426	Motor	
0.025	0	0.0038	0	x	n	0.9711796218325617	84	15	1	2021_Jun_21_1426	Motor	
0.025	1	0.00545	0	n	n	1.1995335225929011	85	15	1	2021_Jun_21_1426	Motor	
0.0165	0	0.008249999999999999	90	n	x	1.1705914179365209	86	15	1	2021_Jun_21_1426	Motor	
0.025	1	0.00545	90	x	x	1.1970986088235804	87	15	1	2021_Jun_21_1426	Motor	
0.0165	1	0.009899999999999999	90	x	x	0.9480043575786112	88	15	1	2021_Jun_21_1426	Motor	
0.025	1	0.00545	0	n	n	1.0517710052099574	89	15	1	2021_Jun_21_1426	Motor	
0.0165	1	0.009899999999999999	0	n	n	1.0996079792657838	90	15	1	2021_Jun_21_1426	Motor	
0.0165	1	0.009899999999999999	90	x	x	1.2462626704018476	91	15	1	2021_Jun_21_1426	Motor	
0.025	1	0.0038	90	x	x	1.4141553698464122	92	15	1	2021_Jun_21_1426	Motor	
0.025	1	0.0038	0	n	n	0.9918508531791304	93	15	1	2021_Jun_21_1426	Motor	
0.0165	1	0.008249999999999999	0	n	n	1.3587248900712439	94	15	1	2021_Jun_21_1426	Motor	
0.025	0	0.0038	0	x	n	0.8162959128694638	95	15	1	2021_Jun_21_1426	Motor	
0.025	1	0.00545	0	n	n	0.6332261858624406	96	15	1	2021_Jun_21_1426	Motor	
