start,accuracy_gabor,delta,orientation,pressed_gabor,expected_gabor,rt_gabor,trial,participant,response condition,date,expName,
0.02,1,0.02,0,n,n,1.112931356240665,0,1,1,2021_Jun_02_1303,Motor,
0.0325,1,0.0325,0,n,n,0.6205412890114985,1,1,1,2021_Jun_02_1303,Motor,
0.0325,1,0.029500000000000002,0,n,n,0.5093244523905014,2,1,1,2021_Jun_02_1303,Motor,
0.02,0,0.017,90,n,x,0.5842468478182354,3,1,1,2021_Jun_02_1303,Motor,
0.02,1,0.02,0,n,n,0.4831781241888393,4,1,1,2021_Jun_02_1303,Motor,
0.0325,1,0.026500000000000003,0,n,n,0.5940213376094334,5,1,1,2021_Jun_02_1303,Motor,
0.0325,0,0.023500000000000004,90,n,x,0.572642257129587,6,1,1,2021_Jun_02_1303,Motor,
0.02,1,0.02,0,n,n,0.6234411887131728,7,1,1,2021_Jun_02_1303,Motor,
0.0325,1,0.026500000000000003,90,x,x,0.7372922032940323,8,1,1,2021_Jun_02_1303,Motor,
0.02,1,0.02,90,x,x,0.6341526164375182,9,1,1,2021_Jun_02_1303,Motor,
0.0325,1,0.026500000000000003,90,x,x,0.5230951360633753,10,1,1,2021_Jun_02_1303,Motor,
0.02,1,0.017,0,n,n,0.752914491357842,11,1,1,2021_Jun_02_1303,Motor,
0.0325,1,0.026500000000000003,90,x,x,0.7246661966617012,12,1,1,2021_Jun_02_1303,Motor,
0.02,1,0.017,0,n,n,0.6733811325275383,13,1,1,2021_Jun_02_1303,Motor,
0.02,1,0.017,0,n,n,0.6812372035013823,14,1,1,2021_Jun_02_1303,Motor,
0.0325,1,0.023500000000000004,0,n,n,0.60808884629148,15,1,1,2021_Jun_02_1303,Motor,
0.02,0,0.014000000000000002,90,n,x,0.4376606042175126,16,1,1,2021_Jun_02_1303,Motor,
0.0325,1,0.023500000000000004,0,n,n,0.38229026029978286,17,1,1,2021_Jun_02_1303,Motor,
0.02,0,0.017,90,n,x,0.7372330686868054,18,1,1,2021_Jun_02_1303,Motor,
0.02,0,0.02,90,n,x,0.6611986354497503,19,1,1,2021_Jun_02_1303,Motor,
0.0325,0,0.023500000000000004,90,n,x,0.5247612728225022,20,1,1,2021_Jun_02_1303,Motor,
0.0325,1,0.026500000000000003,0,n,n,0.4028103530105227,21,1,1,2021_Jun_02_1303,Motor,
0.02,1,0.023,90,x,x,0.2925638615359958,22,1,1,2021_Jun_02_1303,Motor,
0.0325,1,0.026500000000000003,0,n,n,0.5234126965841597,23,1,1,2021_Jun_02_1303,Motor,
0.02,1,0.023,0,n,n,0.6002055119597571,24,1,1,2021_Jun_02_1303,Motor,
0.02,1,0.023,0,n,n,0.36313755938419945,25,1,1,2021_Jun_02_1303,Motor,
0.0325,1,0.026500000000000003,0,n,n,0.5100306117590208,26,1,1,2021_Jun_02_1303,Motor,
0.02,0,0.02,90,n,x,0.504687377602977,27,1,1,2021_Jun_02_1303,Motor,
0.0325,0,0.023500000000000004,90,n,x,0.598613869446126,28,1,1,2021_Jun_02_1303,Motor,
0.02,1,0.023,0,n,n,0.4723994980470252,29,1,1,2021_Jun_02_1303,Motor,
0.0325,1,0.026500000000000003,90,x,x,0.4562004555668864,30,1,1,2021_Jun_02_1303,Motor,
0.0325,1,0.026500000000000003,0,n,n,0.5361024457151871,31,1,1,2021_Jun_02_1303,Motor,
0.0325,1,0.026500000000000003,90,x,x,0.7566856665391697,32,1,1,2021_Jun_02_1303,Motor,
0.02,1,0.023,0,n,n,0.6684264972191158,33,1,1,2021_Jun_02_1303,Motor,
0.02,0,0.023,90,n,x,0.6122305727454886,34,1,1,2021_Jun_02_1303,Motor,
0.0325,1,0.023500000000000004,90,x,x,0.734279026260424,35,1,1,2021_Jun_02_1303,Motor,
0.02,1,0.026,0,n,n,0.5779624518283981,36,1,1,2021_Jun_02_1303,Motor,
0.0325,1,0.023500000000000004,0,n,n,0.5567212241016932,37,1,1,2021_Jun_02_1303,Motor,
0.02,0,0.026,90,n,x,0.6263295686860602,38,1,1,2021_Jun_02_1303,Motor,
0.0325,1,0.023500000000000004,0,n,n,0.3671203135824044,39,1,1,2021_Jun_02_1303,Motor,
0.0325,0,0.020500000000000004,90,n,x,0.39516202114407406,40,1,1,2021_Jun_02_1303,Motor,
0.02,0,0.028999999999999998,90,n,x,0.3019351608230636,41,1,1,2021_Jun_02_1303,Motor,
0.0325,1,0.023500000000000004,0,n,n,0.3156067748292344,42,1,1,2021_Jun_02_1303,Motor,
0.02,1,0.032,0,n,n,0.40445652224002515,43,1,1,2021_Jun_02_1303,Motor,
0.0325,0,0.023500000000000004,90,n,x,0.3433919764321445,44,1,1,2021_Jun_02_1303,Motor,
0.02,0,0.032,90,n,x,0.42713464412486246,45,1,1,2021_Jun_02_1303,Motor,
0.0325,1,0.026500000000000003,90,x,x,0.397028217191405,46,1,1,2021_Jun_02_1303,Motor,
0.02,1,0.035,90,x,x,0.4199090863012316,47,1,1,2021_Jun_02_1303,Motor,
0.0325,1,0.026500000000000003,90,x,x,0.4206859000057648,48,1,1,2021_Jun_02_1303,Motor,
0.02,1,0.035,0,n,n,0.3185155063227967,49,1,1,2021_Jun_02_1303,Motor,
0.02,1,0.035,90,x,x,0.4953540934203602,50,1,1,2021_Jun_02_1303,Motor,
0.0325,1,0.026500000000000003,0,n,n,0.458178008991581,51,1,1,2021_Jun_02_1303,Motor,
0.0325,1,0.023500000000000004,90,x,x,0.5300242528687704,52,1,1,2021_Jun_02_1303,Motor,
0.02,0,0.032,90,n,x,0.7616272461551716,53,1,1,2021_Jun_02_1303,Motor,
0.0325,0,0.023500000000000004,90,n,x,0.7064992005308568,54,1,1,2021_Jun_02_1303,Motor,
0.02,1,0.035,90,x,x,0.5519927594665432,55,1,1,2021_Jun_02_1303,Motor,
0.0325,0,0.026500000000000003,90,n,x,0.5521229324006072,56,1,1,2021_Jun_02_1303,Motor,
0.0325,1,0.029500000000000002,0,n,n,0.5439381651683561,57,1,1,2021_Jun_02_1303,Motor,
0.02,1,0.035,0,n,n,0.42482186659538,58,1,1,2021_Jun_02_1303,Motor,
0.02,1,0.035,0,n,n,0.35449814685955516,59,1,1,2021_Jun_02_1303,Motor,
0.0325,0,0.029500000000000002,90,n,x,0.4103745908577139,60,1,1,2021_Jun_02_1303,Motor,
0.0325,1,0.0325,0,n,n,0.33217329665455964,61,1,1,2021_Jun_02_1303,Motor,
0.02,1,0.032,0,n,n,0.3931721800088326,62,1,1,2021_Jun_02_1303,Motor,
0.02,1,0.032,0,n,n,0.46374626184808676,63,1,1,2021_Jun_02_1303,Motor,
0.02,1,0.032,0,n,n,0.40750349047777945,64,1,1,2021_Jun_02_1303,Motor,
0.0325,1,0.0325,90,x,x,0.3665109199348535,65,1,1,2021_Jun_02_1303,Motor,
0.0325,1,0.0325,90,x,x,0.31213434461199085,66,1,1,2021_Jun_02_1303,Motor,
0.02,1,0.029,0,n,n,0.3820391302143662,67,1,1,2021_Jun_02_1303,Motor,
0.02,1,0.029,0,n,n,0.41292237085224315,68,1,1,2021_Jun_02_1303,Motor,
0.0325,1,0.029500000000000002,90,x,x,0.5347458056668302,69,1,1,2021_Jun_02_1303,Motor,
0.02,1,0.029,90,x,x,0.418454528558982,70,1,1,2021_Jun_02_1303,Motor,
0.0325,1,0.029500000000000002,90,x,x,0.5443025725858206,71,1,1,2021_Jun_02_1303,Motor,
0.02,1,0.026000000000000002,90,x,x,0.48115487584027505,72,1,1,2021_Jun_02_1303,Motor,
0.0325,1,0.029500000000000002,0,n,n,0.45607527451511487,73,1,1,2021_Jun_02_1303,Motor,
0.02,1,0.026000000000000002,0,n,n,0.4198257602637341,74,1,1,2021_Jun_02_1303,Motor,
0.0325,1,0.026500000000000003,90,x,x,0.525641380094271,75,1,1,2021_Jun_02_1303,Motor,
0.02,0,0.026000000000000002,0,x,n,0.42339418822007246,76,1,1,2021_Jun_02_1303,Motor,
0.0325,1,0.026500000000000003,0,n,n,0.40814168344707014,77,1,1,2021_Jun_02_1303,Motor,
0.0325,1,0.026500000000000003,90,x,x,0.4059959419836332,78,1,1,2021_Jun_02_1303,Motor,
0.02,1,0.029,90,x,x,0.37677730214090843,79,1,1,2021_Jun_02_1303,Motor,
0.02,0,0.029,90,n,x,0.4316177385391029,80,1,1,2021_Jun_02_1303,Motor,
0.0325,1,0.023500000000000004,0,n,n,0.4884683675931001,81,1,1,2021_Jun_02_1303,Motor,
0.0325,1,0.023500000000000004,0,n,n,0.49639701285752835,82,1,1,2021_Jun_02_1303,Motor,
0.02,1,0.032,0,n,n,0.3811594069336479,83,1,1,2021_Jun_02_1303,Motor,
0.02,1,0.032,90,x,x,0.44110116318540804,84,1,1,2021_Jun_02_1303,Motor,
0.0325,1,0.023500000000000004,0,n,n,0.4938907038861089,85,1,1,2021_Jun_02_1303,Motor,
0.0325,1,0.020500000000000004,90,x,x,0.523662290705829,86,1,1,2021_Jun_02_1303,Motor,
0.02,1,0.032,90,x,x,0.3774903733466317,87,1,1,2021_Jun_02_1303,Motor,
0.0325,1,0.020500000000000004,0,n,n,0.5253637546328491,88,1,1,2021_Jun_02_1303,Motor,
0.02,1,0.029,0,n,n,0.4821075574027418,89,1,1,2021_Jun_02_1303,Motor,
0.02,1,0.029,0,n,n,0.3970451127935348,90,1,1,2021_Jun_02_1303,Motor,
0.02,1,0.029,0,n,n,0.6145752215243192,91,1,1,2021_Jun_02_1303,Motor,
0.0325,0,0.020500000000000004,90,n,x,0.6484278642269601,92,1,1,2021_Jun_02_1303,Motor,
0.0325,0,0.023500000000000004,90,n,x,0.10814874888069426,93,1,1,2021_Jun_02_1303,Motor,
0.02,1,0.026000000000000002,90,x,x,0.6179063430698761,94,1,1,2021_Jun_02_1303,Motor,
0.0325,1,0.026500000000000003,0,n,n,0.278584286782916,95,1,1,2021_Jun_02_1303,Motor,
0.0325,0,0.026500000000000003,90,n,x,0.3414075111702459,96,1,1,2021_Jun_02_1303,Motor,
0.02,1,0.026000000000000002,0,n,n,0.4262622166722849,97,1,1,2021_Jun_02_1303,Motor,
0.0325,1,0.029500000000000002,90,x,x,0.5521743871888702,98,1,1,2021_Jun_02_1303,Motor,
0.02,1,0.026000000000000002,90,x,x,0.483981433269264,99,1,1,2021_Jun_02_1303,Motor,
0.0325,1,0.029500000000000002,0,n,n,0.4268266833779535,100,1,1,2021_Jun_02_1303,Motor,
0.02,1,0.023000000000000003,0,n,n,0.5126064230935299,101,1,1,2021_Jun_02_1303,Motor,
0.0325,1,0.029500000000000002,90,x,x,0.3985396055952606,102,1,1,2021_Jun_02_1303,Motor,
0.02,1,0.023000000000000003,0,n,n,0.3923592711544188,103,1,1,2021_Jun_02_1303,Motor,
0.02,1,0.023000000000000003,0,n,n,0.5541934116366747,104,1,1,2021_Jun_02_1303,Motor,
0.0325,1,0.026500000000000003,90,x,x,0.4710113707401433,105,1,1,2021_Jun_02_1303,Motor,
0.0325,1,0.026500000000000003,0,n,n,0.482884371107275,106,1,1,2021_Jun_02_1303,Motor,
0.02,1,0.020000000000000004,0,n,n,0.4566044140528902,107,1,1,2021_Jun_02_1303,Motor,
0.0325,1,0.026500000000000003,0,n,n,0.4334631990747084,108,1,1,2021_Jun_02_1303,Motor,
0.02,0,0.020000000000000004,90,n,x,0.40235801166409146,109,1,1,2021_Jun_02_1303,Motor,
0.02,1,0.023000000000000003,90,x,x,0.4041777448057928,110,1,1,2021_Jun_02_1303,Motor,
0.0325,1,0.023500000000000004,0,n,n,0.32205359899364794,111,1,1,2021_Jun_02_1303,Motor,
0.02,1,0.023000000000000003,90,x,x,0.39885371019738614,112,1,1,2021_Jun_02_1303,Motor,
0.0325,1,0.023500000000000004,0,n,n,0.4296351932318885,113,1,1,2021_Jun_02_1303,Motor,
