start,accuracy_gabor,delta,orientation,pressed_gabor,expected_gabor,rt_gabor,trial,participant,response condition,date,expName,
0.025,1,0.025,0,n,n,0.5701609982988884,0,23,1,2021_Jun_23_1223,Motor,
0.0165,1,0.0165,90,x,x,0.38487605930276914,1,23,1,2021_Jun_23_1223,Motor,
0.025,0,0.023350000000000003,0,x,n,0.3237234317475668,2,23,1,2021_Jun_23_1223,Motor,
0.0165,1,0.01485,0,n,n,0.6136593772571359,3,23,1,2021_Jun_23_1223,Motor,
0.025,1,0.025,0,n,n,0.4155746760316106,4,23,1,2021_Jun_23_1223,Motor,
0.0165,0,0.0132,0,x,n,0.7604067907504941,5,23,1,2021_Jun_23_1223,Motor,
0.025,1,0.025,0,n,n,0.5012524052599474,6,23,1,2021_Jun_23_1223,Motor,
0.0165,1,0.01485,90,x,x,0.5150831986466073,7,23,1,2021_Jun_23_1223,Motor,
0.025,1,0.025,0,n,n,0.5038263351852947,8,23,1,2021_Jun_23_1223,Motor,
0.025,0,0.023350000000000003,90,n,x,0.3827709893557767,9,23,1,2021_Jun_23_1223,Motor,
0.0165,1,0.01485,0,n,n,0.612480123370915,10,23,1,2021_Jun_23_1223,Motor,
0.025,1,0.025,90,x,x,0.3343002370420436,11,23,1,2021_Jun_23_1223,Motor,
0.0165,0,0.01485,90,n,x,0.3872069193130301,12,23,1,2021_Jun_23_1223,Motor,
0.025,1,0.025,0,n,n,0.5818805777907983,13,23,1,2021_Jun_23_1223,Motor,
0.0165,1,0.0165,0,n,n,0.4968679308603896,14,23,1,2021_Jun_23_1223,Motor,
0.025,1,0.025,0,n,n,0.46265651225621696,15,23,1,2021_Jun_23_1223,Motor,
0.0165,1,0.0165,90,x,x,0.4505383441828599,16,23,1,2021_Jun_23_1223,Motor,
0.025,1,0.023350000000000003,0,n,n,0.45027300245965307,17,23,1,2021_Jun_23_1223,Motor,
0.0165,1,0.0165,90,x,x,0.4902209478641453,18,23,1,2021_Jun_23_1223,Motor,
0.025,1,0.023350000000000003,90,x,x,0.4250778265322879,19,23,1,2021_Jun_23_1223,Motor,
0.0165,1,0.01485,0,n,n,0.3988178277377301,20,23,1,2021_Jun_23_1223,Motor,
0.025,1,0.023350000000000003,90,x,x,0.42177238288059016,21,23,1,2021_Jun_23_1223,Motor,
0.0165,1,0.01485,0,n,n,0.7825756886322779,22,23,1,2021_Jun_23_1223,Motor,
0.025,1,0.021700000000000004,0,n,n,0.5294016678526532,23,23,1,2021_Jun_23_1223,Motor,
0.0165,1,0.01485,90,x,x,0.37715234954157495,24,23,1,2021_Jun_23_1223,Motor,
0.025,0,0.021700000000000004,0,x,n,1.0821430395408242,25,23,1,2021_Jun_23_1223,Motor,
0.0165,1,0.0132,90,x,x,0.5837690735952492,26,23,1,2021_Jun_23_1223,Motor,
0.025,1,0.023350000000000003,0,n,n,0.4026236191002681,27,23,1,2021_Jun_23_1223,Motor,
0.0165,0,0.0132,0,x,n,0.5684230292044958,28,23,1,2021_Jun_23_1223,Motor,
0.0165,1,0.01485,90,x,x,0.37624458132631844,29,23,1,2021_Jun_23_1223,Motor,
0.025,1,0.023350000000000003,0,n,n,0.5082092735956394,30,23,1,2021_Jun_23_1223,Motor,
0.025,1,0.023350000000000003,90,x,x,0.4621853482985898,31,23,1,2021_Jun_23_1223,Motor,
0.0165,1,0.01485,90,x,x,0.5367744046234293,32,23,1,2021_Jun_23_1223,Motor,
0.0165,0,0.01485,0,x,n,0.8457089712010202,33,23,1,2021_Jun_23_1223,Motor,
0.025,1,0.021700000000000004,0,n,n,0.714451600862958,34,23,1,2021_Jun_23_1223,Motor,
0.025,1,0.021700000000000004,0,n,n,0.6161691797315143,35,23,1,2021_Jun_23_1223,Motor,
0.0165,1,0.0165,0,n,n,0.633093834587271,36,23,1,2021_Jun_23_1223,Motor,
0.0165,1,0.0165,0,n,n,0.5830771115306561,37,23,1,2021_Jun_23_1223,Motor,
0.025,1,0.021700000000000004,0,n,n,0.6486990767571115,38,23,1,2021_Jun_23_1223,Motor,
0.0165,1,0.0165,0,n,n,1.2385107225327374,39,23,1,2021_Jun_23_1223,Motor,
0.025,1,0.020050000000000005,0,n,n,0.6781681360298535,40,23,1,2021_Jun_23_1223,Motor,
0.0165,1,0.01485,90,x,x,0.4781772751503013,41,23,1,2021_Jun_23_1223,Motor,
0.025,1,0.020050000000000005,90,x,x,0.4048776797699247,42,23,1,2021_Jun_23_1223,Motor,
0.0165,1,0.01485,90,x,x,0.4357260552133084,43,23,1,2021_Jun_23_1223,Motor,
0.025,1,0.020050000000000005,90,x,x,0.3315366127426387,44,23,1,2021_Jun_23_1223,Motor,
0.0165,1,0.01485,90,x,x,0.33639417108315683,45,23,1,2021_Jun_23_1223,Motor,
0.025,1,0.018400000000000007,0,n,n,0.7011722267452569,46,23,1,2021_Jun_23_1223,Motor,
0.0165,1,0.0132,90,x,x,0.5201400512796681,47,23,1,2021_Jun_23_1223,Motor,
0.0165,1,0.0132,90,x,x,0.44504143132508034,48,23,1,2021_Jun_23_1223,Motor,
0.025,1,0.018400000000000007,0,n,n,0.45675525086699054,49,23,1,2021_Jun_23_1223,Motor,
0.0165,1,0.0132,90,x,x,0.449673583600088,50,23,1,2021_Jun_23_1223,Motor,
0.025,1,0.018400000000000007,0,n,n,0.7733444077985041,51,23,1,2021_Jun_23_1223,Motor,
0.025,0,0.016750000000000008,0,x,n,0.9611641090577905,52,23,1,2021_Jun_23_1223,Motor,
0.0165,0,0.01155,0,x,n,0.4388882680941606,53,23,1,2021_Jun_23_1223,Motor,
0.025,0,0.018400000000000007,0,x,n,0.43547645735452534,54,23,1,2021_Jun_23_1223,Motor,
0.0165,0,0.0132,0,x,n,1.1513953096346086,55,23,1,2021_Jun_23_1223,Motor,
0.025,1,0.020050000000000005,90,x,x,0.5482032986074046,56,23,1,2021_Jun_23_1223,Motor,
0.025,0,0.020050000000000005,0,x,n,0.6921037605188758,57,23,1,2021_Jun_23_1223,Motor,
0.0165,1,0.01485,0,n,n,0.366850869886548,58,23,1,2021_Jun_23_1223,Motor,
0.0165,1,0.01485,90,x,x,0.5267351947186398,59,23,1,2021_Jun_23_1223,Motor,
0.025,0,0.021700000000000004,0,x,n,0.5486230070091551,60,23,1,2021_Jun_23_1223,Motor,
0.0165,0,0.01485,0,x,n,0.6993079227340786,61,23,1,2021_Jun_23_1223,Motor,
0.025,1,0.023350000000000003,90,x,x,0.5861053095613897,62,23,1,2021_Jun_23_1223,Motor,
0.0165,1,0.0165,90,x,x,0.34109582676319405,63,23,1,2021_Jun_23_1223,Motor,
0.025,1,0.023350000000000003,0,n,n,1.2338059948797309,64,23,1,2021_Jun_23_1223,Motor,
0.025,0,0.023350000000000003,0,x,n,0.4587270739557425,65,23,1,2021_Jun_23_1223,Motor,
0.0165,0,0.0165,0,x,n,0.486458932127789,66,23,1,2021_Jun_23_1223,Motor,
0.0165,1,0.01815,90,x,x,0.48518598304508487,67,23,1,2021_Jun_23_1223,Motor,
0.025,1,0.025,90,x,x,0.46413451558146335,68,23,1,2021_Jun_23_1223,Motor,
0.025,1,0.025,0,n,n,0.44299933683760173,69,23,1,2021_Jun_23_1223,Motor,
0.0165,1,0.01815,0,n,n,0.9397835564159323,70,23,1,2021_Jun_23_1223,Motor,
0.025,0,0.025,0,x,n,0.6325931028804916,71,23,1,2021_Jun_23_1223,Motor,
0.0165,1,0.01815,90,x,x,0.9613910511106951,72,23,1,2021_Jun_23_1223,Motor,
0.0165,0,0.0165,0,x,n,0.6022830908186734,73,23,1,2021_Jun_23_1223,Motor,
0.025,1,0.02665,90,x,x,0.4920910118271422,74,23,1,2021_Jun_23_1223,Motor,
0.0165,1,0.01815,90,x,x,0.4668175005735975,75,23,1,2021_Jun_23_1223,Motor,
0.025,1,0.02665,90,x,x,0.5497492693502863,76,23,1,2021_Jun_23_1223,Motor,
0.0165,1,0.01815,0,n,n,0.6245287880428805,77,23,1,2021_Jun_23_1223,Motor,
0.0165,1,0.01815,0,n,n,0.386201615934624,78,23,1,2021_Jun_23_1223,Motor,
0.025,1,0.02665,90,x,x,0.4372221063840698,79,23,1,2021_Jun_23_1223,Motor,
0.025,1,0.025,90,x,x,0.47806438011866703,80,23,1,2021_Jun_23_1223,Motor,
0.0165,0,0.0165,0,x,n,1.0419209204846993,81,23,1,2021_Jun_23_1223,Motor,
0.0165,1,0.01815,0,n,n,0.6657158908219571,82,23,1,2021_Jun_23_1223,Motor,
0.025,1,0.025,0,n,n,0.48937308313725225,83,23,1,2021_Jun_23_1223,Motor,
0.025,1,0.025,0,n,n,0.6442170671944041,84,23,1,2021_Jun_23_1223,Motor,
0.0165,1,0.01815,0,n,n,0.5010404390759504,85,23,1,2021_Jun_23_1223,Motor,
0.0165,1,0.01815,0,n,n,0.4029550082577771,86,23,1,2021_Jun_23_1223,Motor,
0.025,1,0.023350000000000003,0,n,n,0.4378487890098768,87,23,1,2021_Jun_23_1223,Motor,
0.0165,1,0.0165,0,n,n,0.42165795186156174,88,23,1,2021_Jun_23_1223,Motor,
0.025,1,0.023350000000000003,0,n,n,0.3794048742238374,89,23,1,2021_Jun_23_1223,Motor,
0.025,1,0.023350000000000003,90,x,x,0.5262432949384674,90,23,1,2021_Jun_23_1223,Motor,
0.0165,1,0.0165,90,x,x,0.6751814096442104,91,23,1,2021_Jun_23_1223,Motor,
0.0165,1,0.0165,90,x,x,0.5287112417736353,92,23,1,2021_Jun_23_1223,Motor,
0.025,0,0.021700000000000004,0,x,n,0.6694571707357682,93,23,1,2021_Jun_23_1223,Motor,
0.0165,1,0.01485,90,x,x,0.7450649703223462,94,23,1,2021_Jun_23_1223,Motor,
